LabVIEW Measurement	
Writer_Version	2
Reader_Version	2
Separator	Tab
Decimal_Separator	.
Multi_Headings	Yes
X_Columns	One
Time_Pref	Relative
Operator	bjl40
Description	Time Domain Data
Date	1903/12/31
Time	19:00:00
***End_of_Header***	
	
Channels	1	
Samples	10000	
Date	1903/12/31	
Time	19:00:00	
X_Dimension	Time	
X0	0.0000000000000000E+0	
Delta_X	0.001000	
***End_of_Header***		
X_Value	Untitled	Comment
0.000000	1.545252	Tare Values:0.000000, 0.000000, 0.000000, 0.000000\0D\0A
0.001000	1.546862
0.002000	1.550728
0.003000	1.546540
0.004000	1.549439
0.005000	1.554593
0.006000	1.560390
0.007000	1.574885
0.008000	1.582293
0.009000	1.564900
0.010000	1.556525
0.011000	1.553304
0.012000	1.550406
0.013000	1.557169
0.014000	1.574240
0.015000	1.573274
0.016000	1.576173
0.017000	1.577139
0.018000	1.571020
0.019000	1.571020
0.020000	1.591312
0.021000	1.584225
0.022000	1.566188
0.023000	1.538810
0.024000	1.525926
0.025000	1.529791
0.026000	1.523672
0.027000	1.497260
0.028000	1.458609
0.029000	1.445403
0.030000	1.468916
0.031000	1.516908
0.032000	1.560068
0.033000	1.581971
0.034000	1.606772
0.035000	1.653154
0.036000	1.663461
0.037000	1.680532
0.038000	1.684719
0.039000	1.675700
0.040000	1.665393
0.041000	1.655408
0.042000	1.645745
0.043000	1.640270
0.044000	1.631895
0.045000	1.619012
0.046000	1.596143
0.047000	1.573596
0.048000	1.561035
0.049000	1.551050
0.050000	1.541709
0.051000	1.546218
0.052000	1.539132
0.053000	1.537844
0.054000	1.549117
0.055000	1.567799
0.056000	1.559102
0.057000	1.568765
0.058000	1.584870
0.059000	1.592922
0.060000	1.599364
0.061000	1.614502
0.062000	1.638015
0.063000	1.642202
0.064000	1.632540
0.065000	1.624165
0.066000	1.598075
0.067000	1.564578
0.068000	1.543319
0.069000	1.537844
0.070000	1.540743
0.071000	1.544608
0.072000	1.545574
0.073000	1.552982
0.074000	1.565544
0.075000	1.577461
0.076000	1.592278
0.077000	1.623521
0.078000	1.626420
0.079000	1.607094
0.080000	1.587124
0.081000	1.596787
0.082000	1.578750
0.083000	1.566832
0.084000	1.564256
0.085000	1.573596
0.086000	1.574240
0.087000	1.571020
0.088000	1.580682
0.089000	1.571342
0.090000	1.531402
0.091000	1.499515
0.092000	1.487919
0.093000	1.478578
0.094000	1.504346
0.095000	1.528825
0.096000	1.540098
0.097000	1.556203
0.098000	1.529147
0.099000	1.497904
0.100000	1.488885
0.101000	1.510144
0.102000	1.519484
0.103000	1.523672
0.104000	1.535589
0.105000	1.564578
0.106000	1.608705
0.107000	1.650899
0.108000	1.661206
0.109000	1.656375
0.110000	1.650577
0.111000	1.647678
0.112000	1.643813
0.113000	1.622555
0.114000	1.609993
0.115000	1.614180
0.116000	1.634150
0.117000	1.646068
0.118000	1.650577
0.119000	1.653476
0.120000	1.647678
0.121000	1.634150
0.122000	1.624487
0.123000	1.617079
0.124000	1.608705
0.125000	1.600008
0.126000	1.594855
0.127000	1.578106
0.128000	1.579394
0.129000	1.574885
0.130000	1.558780
0.131000	1.548151
0.132000	1.537522
0.133000	1.518196
0.134000	1.518196
0.135000	1.536555
0.136000	1.568121
0.137000	1.595499
0.138000	1.592600
0.139000	1.599364
0.140000	1.616757
0.141000	1.602585
0.142000	1.578750
0.143000	1.568121
0.144000	1.569409
0.145000	1.559102
0.146000	1.549439
0.147000	1.550406
0.148000	1.559746
0.149000	1.575851
0.150000	1.586802
0.151000	1.593566
0.152000	1.599686
0.153000	1.601296
0.154000	1.584225
0.155000	1.572952
0.156000	1.558458
0.157000	1.549439
0.158000	1.562645
0.159000	1.563933
0.160000	1.565866
0.161000	1.569731
0.162000	1.554915
0.163000	1.516586
0.164000	1.479223
0.165000	1.458286
0.166000	1.473747
0.167000	1.497260
0.168000	1.525926
0.169000	1.576817
0.170000	1.631573
0.171000	1.684719
0.172000	1.675378
0.173000	1.644457
0.174000	1.613214
0.175000	1.594210
0.176000	1.584225
0.177000	1.584225
0.178000	1.594532
0.179000	1.628352
0.180000	1.640914
0.181000	1.620300
0.182000	1.610959
0.183000	1.586158
0.184000	1.524638
0.185000	1.487919
0.186000	1.493395
0.187000	1.525604
0.188000	1.554915
0.189000	1.587124
0.190000	1.626742
0.191000	1.666037
0.192000	1.681820
0.193000	1.670225
0.194000	1.650255
0.195000	1.643813
0.196000	1.636083
0.197000	1.619334
0.198000	1.623521
0.199000	1.636083
0.200000	1.622555
0.201000	1.588413
0.202000	1.571342
0.203000	1.559424
0.204000	1.528825
0.205000	1.523994
0.206000	1.537844
0.207000	1.550728
0.208000	1.557169
0.209000	1.562001
0.210000	1.569087
0.211000	1.568121
0.212000	1.564578
0.213000	1.562001
0.214000	1.555237
0.215000	1.532046
0.216000	1.506923
0.217000	1.506923
0.218000	1.512720
0.219000	1.534945
0.220000	1.563289
0.221000	1.604839
0.222000	1.631573
0.223000	1.615469
0.224000	1.591312
0.225000	1.579394
0.226000	1.563611
0.227000	1.533657
0.228000	1.507567
0.229000	1.511110
0.230000	1.540743
0.231000	1.538166
0.232000	1.521739
0.233000	1.571986
0.234000	1.642525
0.235000	1.666360
0.236000	1.677633
0.237000	1.675700
0.238000	1.661528
0.239000	1.643169
0.240000	1.620622
0.241000	1.605162
0.242000	1.593888
0.243000	1.596465
0.244000	1.600330
0.245000	1.624809
0.246000	1.636083
0.247000	1.619334
0.248000	1.619334
0.249000	1.611281
0.250000	1.592600
0.251000	1.571986
0.252000	1.550406
0.253000	1.535589
0.254000	1.528825
0.255000	1.536878
0.256000	1.555559
0.257000	1.529147
0.258000	1.457964
0.259000	1.386459
0.260000	1.338467
0.261000	1.339756
0.262000	1.383561
0.263000	1.465695
0.264000	1.581649
0.265000	1.675700
0.266000	1.720471
0.267000	1.765887
0.268000	1.743340
0.269000	1.714352
0.270000	1.700179
0.271000	1.707910
0.272000	1.697925
0.273000	1.678277
0.274000	1.660240
0.275000	1.645101
0.276000	1.633828
0.277000	1.625131
0.278000	1.607094
0.279000	1.584870
0.280000	1.572630
0.281000	1.569731
0.282000	1.564900
0.283000	1.561357
0.284000	1.556525
0.285000	1.563611
0.286000	1.583903
0.287000	1.595499
0.288000	1.595177
0.289000	1.588413
0.290000	1.582937
0.291000	1.583903
0.292000	1.583903
0.293000	1.579394
0.294000	1.549117
0.295000	1.510466
0.296000	1.479223
0.297000	1.472781
0.298000	1.497582
0.299000	1.514975
0.300000	1.553949
0.301000	1.587124
0.302000	1.583581
0.303000	1.590345
0.304000	1.588413
0.305000	1.600974
0.306000	1.616113
0.307000	1.606772
0.308000	1.610315
0.309000	1.617401
0.310000	1.626742
0.311000	1.616757
0.312000	1.602585
0.313000	1.588413
0.314000	1.570697
0.315000	1.571020
0.316000	1.570053
0.317000	1.575851
0.318000	1.587124
0.319000	1.593566
0.320000	1.596143
0.321000	1.591634
0.322000	1.582615
0.323000	1.570697
0.324000	1.554271
0.325000	1.550728
0.326000	1.550406
0.327000	1.558780
0.328000	1.598075
0.329000	1.621588
0.330000	1.606772
0.331000	1.553304
0.332000	1.496616
0.333000	1.457642
0.334000	1.439927
0.335000	1.440893
0.336000	1.484054
0.337000	1.552016
0.338000	1.600652
0.339000	1.627386
0.340000	1.633828
0.341000	1.617723
0.342000	1.576173
0.343000	1.556525
0.344000	1.555559
0.345000	1.569731
0.346000	1.588413
0.347000	1.617079
0.348000	1.660240
0.349000	1.677633
0.350000	1.664749
0.351000	1.639304
0.352000	1.616757
0.353000	1.594532
0.354000	1.574240
0.355000	1.546218
0.356000	1.528825
0.357000	1.532368
0.358000	1.552338
0.359000	1.591312
0.360000	1.624165
0.361000	1.628997
0.362000	1.629963
0.363000	1.615147
0.364000	1.581327
0.365000	1.557814
0.366000	1.532046
0.367000	1.540743
0.368000	1.562967
0.369000	1.569087
0.370000	1.559424
0.371000	1.589379
0.372000	1.632862
0.373000	1.644779
0.374000	1.645745
0.375000	1.640270
0.376000	1.648000
0.377000	1.646068
0.378000	1.632540
0.379000	1.616757
0.380000	1.598398
0.381000	1.587446
0.382000	1.585192
0.383000	1.578428
0.384000	1.573274
0.385000	1.573274
0.386000	1.574240
0.387000	1.576173
0.388000	1.576817
0.389000	1.570697
0.390000	1.567154
0.391000	1.555881
0.392000	1.533657
0.393000	1.517230
0.394000	1.530114
0.395000	1.550406
0.396000	1.590345
0.397000	1.627064
0.398000	1.645745
0.399000	1.632218
0.400000	1.638981
0.401000	1.627064
0.402000	1.592278
0.403000	1.570375
0.404000	1.564578
0.405000	1.563289
0.406000	1.569731
0.407000	1.576817
0.408000	1.580360
0.409000	1.578750
0.410000	1.575207
0.411000	1.580682
0.412000	1.578106
0.413000	1.577461
0.414000	1.565866
0.415000	1.565866
0.416000	1.562323
0.417000	1.543319
0.418000	1.513043
0.419000	1.476324
0.420000	1.438317
0.421000	1.419957
0.422000	1.417058
0.423000	1.461185
0.424000	1.497582
0.425000	1.553949
0.426000	1.617401
0.427000	1.647034
0.428000	1.659596
0.429000	1.664105
0.430000	1.668936
0.431000	1.667970
0.432000	1.642525
0.433000	1.638659
0.434000	1.638337
0.435000	1.631895
0.436000	1.633506
0.437000	1.627708
0.438000	1.610959
0.439000	1.578428
0.440000	1.565866
0.441000	1.561357
0.442000	1.567799
0.443000	1.571342
0.444000	1.563289
0.445000	1.590989
0.446000	1.609671
0.447000	1.617401
0.448000	1.618045
0.449000	1.610315
0.450000	1.594210
0.451000	1.569409
0.452000	1.536878
0.453000	1.503058
0.454000	1.476002
0.455000	1.468271
0.456000	1.485665
0.457000	1.511754
0.458000	1.545896
0.459000	1.614824
0.460000	1.651221
0.461000	1.646712
0.462000	1.649611
0.463000	1.648644
0.464000	1.638659
0.465000	1.635438
0.466000	1.621910
0.467000	1.616435
0.468000	1.611603
0.469000	1.620300
0.470000	1.612248
0.471000	1.614502
0.472000	1.617401
0.473000	1.610637
0.474000	1.591312
0.475000	1.581004
0.476000	1.574240
0.477000	1.557492
0.478000	1.549439
0.479000	1.545574
0.480000	1.542353
0.481000	1.509177
0.482000	1.469560
0.483000	1.463762
0.484000	1.476002
0.485000	1.496616
0.486000	1.514975
0.487000	1.518840
0.488000	1.538810
0.489000	1.572308
0.490000	1.596143
0.491000	1.645745
0.492000	1.667648
0.493000	1.656053
0.494000	1.645101
0.495000	1.644457
0.496000	1.634150
0.497000	1.626098
0.498000	1.625776
0.499000	1.616757
0.500000	1.612248
0.501000	1.604517
0.502000	1.598720
0.503000	1.596143
0.504000	1.583259
0.505000	1.590023
0.506000	1.596143
0.507000	1.570053
0.508000	1.525926
0.509000	1.504990
0.510000	1.489852
0.511000	1.480511
0.512000	1.475357
0.513000	1.477612
0.514000	1.525604
0.515000	1.587124
0.516000	1.610959
0.517000	1.640592
0.518000	1.664105
0.519000	1.678921
0.520000	1.669258
0.521000	1.652832
0.522000	1.643169
0.523000	1.622233
0.524000	1.612570
0.525000	1.593888
0.526000	1.570375
0.527000	1.557492
0.528000	1.553949
0.529000	1.557814
0.530000	1.558780
0.531000	1.556847
0.532000	1.557169
0.533000	1.544930
0.534000	1.536878
0.535000	1.528825
0.536000	1.502091
0.537000	1.510466
0.538000	1.526893
0.539000	1.557492
0.540000	1.589379
0.541000	1.606772
0.542000	1.634150
0.543000	1.639304
0.544000	1.632540
0.545000	1.599364
0.546000	1.580682
0.547000	1.590023
0.548000	1.607738
0.549000	1.607738
0.550000	1.617401
0.551000	1.625776
0.552000	1.639948
0.553000	1.633506
0.554000	1.618367
0.555000	1.607094
0.556000	1.606128
0.557000	1.602907
0.558000	1.603551
0.559000	1.604517
0.560000	1.598720
0.561000	1.592278
0.562000	1.579072
0.563000	1.552982
0.564000	1.529147
0.565000	1.527859
0.566000	1.520773
0.567000	1.523350
0.568000	1.533334
0.569000	1.560068
0.570000	1.601296
0.571000	1.614502
0.572000	1.594855
0.573000	1.570697
0.574000	1.538488
0.575000	1.523994
0.576000	1.551372
0.577000	1.577784
0.578000	1.593244
0.579000	1.610637
0.580000	1.612892
0.581000	1.602585
0.582000	1.604839
0.583000	1.581004
0.584000	1.546540
0.585000	1.519807
0.586000	1.516263
0.587000	1.524316
0.588000	1.527215
0.589000	1.535267
0.590000	1.542353
0.591000	1.525282
0.592000	1.538488
0.593000	1.554593
0.594000	1.562323
0.595000	1.559102
0.596000	1.572630
0.597000	1.621588
0.598000	1.603873
0.599000	1.602263
0.600000	1.600974
0.601000	1.594855
0.602000	1.576173
0.603000	1.569087
0.604000	1.581327
0.605000	1.621588
0.606000	1.639948
0.607000	1.647678
0.608000	1.660562
0.609000	1.666682
0.610000	1.666682
0.611000	1.646068
0.612000	1.628674
0.613000	1.609671
0.614000	1.595821
0.615000	1.585836
0.616000	1.580360
0.617000	1.596465
0.618000	1.611603
0.619000	1.633506
0.620000	1.632218
0.621000	1.599042
0.622000	1.573274
0.623000	1.547829
0.624000	1.536233
0.625000	1.533979
0.626000	1.550728
0.627000	1.571020
0.628000	1.581327
0.629000	1.575529
0.630000	1.571342
0.631000	1.565222
0.632000	1.571342
0.633000	1.570053
0.634000	1.555881
0.635000	1.539454
0.636000	1.530758
0.637000	1.524638
0.638000	1.533334
0.639000	1.540098
0.640000	1.560390
0.641000	1.572630
0.642000	1.590023
0.643000	1.598720
0.644000	1.595821
0.645000	1.576495
0.646000	1.546862
0.647000	1.519484
0.648000	1.517874
0.649000	1.525926
0.650000	1.550728
0.651000	1.564256
0.652000	1.555881
0.653000	1.559746
0.654000	1.560713
0.655000	1.532368
0.656000	1.526571
0.657000	1.538488
0.658000	1.544286
0.659000	1.550083
0.660000	1.549117
0.661000	1.548473
0.662000	1.570053
0.663000	1.563611
0.664000	1.543642
0.665000	1.541709
0.666000	1.547829
0.667000	1.589701
0.668000	1.630929
0.669000	1.694060
0.670000	1.727558
0.671000	1.715318
0.672000	1.687940
0.673000	1.673768
0.674000	1.644135
0.675000	1.610315
0.676000	1.591312
0.677000	1.585192
0.678000	1.583259
0.679000	1.576495
0.680000	1.563933
0.681000	1.573274
0.682000	1.582937
0.683000	1.560068
0.684000	1.552338
0.685000	1.565222
0.686000	1.565866
0.687000	1.574240
0.688000	1.610315
0.689000	1.655086
0.690000	1.675378
0.691000	1.665071
0.692000	1.643813
0.693000	1.638015
0.694000	1.620300
0.695000	1.583259
0.696000	1.554915
0.697000	1.537200
0.698000	1.540421
0.699000	1.558458
0.700000	1.573918
0.701000	1.566832
0.702000	1.572308
0.703000	1.583259
0.704000	1.583259
0.705000	1.588735
0.706000	1.589057
0.707000	1.590023
0.708000	1.583259
0.709000	1.581971
0.710000	1.601941
0.711000	1.618690
0.712000	1.616757
0.713000	1.594532
0.714000	1.562001
0.715000	1.534945
0.716000	1.505956
0.717000	1.492751
0.718000	1.463440
0.719000	1.438317
0.720000	1.427688
0.721000	1.450878
0.722000	1.491784
0.723000	1.528181
0.724000	1.553304
0.725000	1.565222
0.726000	1.595821
0.727000	1.627064
0.728000	1.659273
0.729000	1.700824
0.730000	1.706943
0.731000	1.693738
0.732000	1.673124
0.733000	1.656697
0.734000	1.635438
0.735000	1.616757
0.736000	1.623199
0.737000	1.615791
0.738000	1.610959
0.739000	1.603229
0.740000	1.591312
0.741000	1.580682
0.742000	1.584870
0.743000	1.579716
0.744000	1.570375
0.745000	1.560713
0.746000	1.559102
0.747000	1.567477
0.748000	1.564256
0.749000	1.537522
0.750000	1.505312
0.751000	1.492751
0.752000	1.499192
0.753000	1.511110
0.754000	1.539454
0.755000	1.583903
0.756000	1.624165
0.757000	1.653798
0.758000	1.657341
0.759000	1.655730
0.760000	1.646390
0.761000	1.623199
0.762000	1.605806
0.763000	1.587446
0.764000	1.569409
0.765000	1.537844
0.766000	1.512398
0.767000	1.488241
0.768000	1.477290
0.769000	1.501769
0.770000	1.517230
0.771000	1.533012
0.772000	1.550406
0.773000	1.571664
0.774000	1.590667
0.775000	1.570375
0.776000	1.554915
0.777000	1.581649
0.778000	1.605162
0.779000	1.619334
0.780000	1.632862
0.781000	1.670547
0.782000	1.694060
0.783000	1.676022
0.784000	1.636727
0.785000	1.625776
0.786000	1.621910
0.787000	1.634794
0.788000	1.634794
0.789000	1.616113
0.790000	1.593888
0.791000	1.580360
0.792000	1.575207
0.793000	1.575529
0.794000	1.581327
0.795000	1.585192
0.796000	1.583259
0.797000	1.584548
0.798000	1.591956
0.799000	1.611926
0.800000	1.608383
0.801000	1.569087
0.802000	1.533334
0.803000	1.514009
0.804000	1.510788
0.805000	1.512076
0.806000	1.491462
0.807000	1.498548
0.808000	1.554271
0.809000	1.582293
0.810000	1.590989
0.811000	1.584870
0.812000	1.604839
0.813000	1.617079
0.814000	1.604195
0.815000	1.582615
0.816000	1.562323
0.817000	1.540098
0.818000	1.552338
0.819000	1.573274
0.820000	1.585192
0.821000	1.595821
0.822000	1.592278
0.823000	1.614180
0.824000	1.647678
0.825000	1.645423
0.826000	1.632218
0.827000	1.623843
0.828000	1.621910
0.829000	1.636405
0.830000	1.602907
0.831000	1.569731
0.832000	1.548795
0.833000	1.535267
0.834000	1.525282
0.835000	1.532690
0.836000	1.546540
0.837000	1.561357
0.838000	1.556203
0.839000	1.542997
0.840000	1.511110
0.841000	1.465050
0.842000	1.438961
0.843000	1.432841
0.844000	1.463118
0.845000	1.527537
0.846000	1.610959
0.847000	1.663139
0.848000	1.682786
0.849000	1.694382
0.850000	1.684719
0.851000	1.686329
0.852000	1.661528
0.853000	1.638659
0.854000	1.638981
0.855000	1.630929
0.856000	1.610637
0.857000	1.587446
0.858000	1.589057
0.859000	1.580038
0.860000	1.570375
0.861000	1.570053
0.862000	1.585192
0.863000	1.584870
0.864000	1.564256
0.865000	1.542997
0.866000	1.521417
0.867000	1.513043
0.868000	1.510788
0.869000	1.530758
0.870000	1.553626
0.871000	1.564900
0.872000	1.596143
0.873000	1.642202
0.874000	1.666682
0.875000	1.655408
0.876000	1.625454
0.877000	1.576495
0.878000	1.546540
0.879000	1.552338
0.880000	1.558458
0.881000	1.584548
0.882000	1.620622
0.883000	1.634794
0.884000	1.611926
0.885000	1.577784
0.886000	1.553949
0.887000	1.530436
0.888000	1.493073
0.889000	1.471170
0.890000	1.483732
0.891000	1.526248
0.892000	1.558136
0.893000	1.563933
0.894000	1.589057
0.895000	1.610959
0.896000	1.616757
0.897000	1.632862
0.898000	1.645101
0.899000	1.639948
0.900000	1.620300
0.901000	1.601941
0.902000	1.572952
0.903000	1.555237
0.904000	1.549761
0.905000	1.555881
0.906000	1.550083
0.907000	1.563611
0.908000	1.578750
0.909000	1.600652
0.910000	1.612570
0.911000	1.609027
0.912000	1.597431
0.913000	1.590989
0.914000	1.581004
0.915000	1.573918
0.916000	1.581327
0.917000	1.608383
0.918000	1.602907
0.919000	1.582293
0.920000	1.578428
0.921000	1.577461
0.922000	1.592278
0.923000	1.605162
0.924000	1.610637
0.925000	1.605484
0.926000	1.577784
0.927000	1.561357
0.928000	1.541065
0.929000	1.530758
0.930000	1.530436
0.931000	1.531402
0.932000	1.538166
0.933000	1.542031
0.934000	1.519162
0.935000	1.519484
0.936000	1.552982
0.937000	1.563611
0.938000	1.592922
0.939000	1.610959
0.940000	1.627386
0.941000	1.655086
0.942000	1.620944
0.943000	1.587768
0.944000	1.554271
0.945000	1.544286
0.946000	1.571342
0.947000	1.594855
0.948000	1.624487
0.949000	1.642202
0.950000	1.640592
0.951000	1.643169
0.952000	1.632540
0.953000	1.616435
0.954000	1.589379
0.955000	1.577784
0.956000	1.567799
0.957000	1.555237
0.958000	1.537522
0.959000	1.525926
0.960000	1.514653
0.961000	1.512720
0.962000	1.539132
0.963000	1.539454
0.964000	1.533334
0.965000	1.534301
0.966000	1.539132
0.967000	1.561357
0.968000	1.590667
0.969000	1.614824
0.970000	1.640592
0.971000	1.654764
0.972000	1.666037
0.973000	1.673124
0.974000	1.666682
0.975000	1.654120
0.976000	1.631251
0.977000	1.612248
0.978000	1.599686
0.979000	1.575207
0.980000	1.546862
0.981000	1.515619
0.982000	1.466339
0.983000	1.434129
0.984000	1.433485
0.985000	1.456676
0.986000	1.490174
0.987000	1.533012
0.988000	1.582937
0.989000	1.619656
0.990000	1.597753
0.991000	1.584548
0.992000	1.598720
0.993000	1.625776
0.994000	1.645745
0.995000	1.669258
0.996000	1.676022
0.997000	1.713063
0.998000	1.691805
0.999000	1.656375
1.000000	1.628352
1.001000	1.597431
1.002000	1.594532
1.003000	1.590345
1.004000	1.595177
1.005000	1.603551
1.006000	1.597753
1.007000	1.584870
1.008000	1.575529
1.009000	1.563933
1.010000	1.554271
1.011000	1.547185
1.012000	1.532368
1.013000	1.520451
1.014000	1.499515
1.015000	1.486631
1.016000	1.492751
1.017000	1.507889
1.018000	1.528181
1.019000	1.565544
1.020000	1.621588
1.021000	1.674412
1.022000	1.669258
1.023000	1.648644
1.024000	1.646390
1.025000	1.646712
1.026000	1.632862
1.027000	1.632862
1.028000	1.634472
1.029000	1.615791
1.030000	1.613214
1.031000	1.596465
1.032000	1.589057
1.033000	1.576817
1.034000	1.576817
1.035000	1.588091
1.036000	1.594532
1.037000	1.592278
1.038000	1.610315
1.039000	1.603873
1.040000	1.589057
1.041000	1.571664
1.042000	1.549117
1.043000	1.528181
1.044000	1.514331
1.045000	1.497904
1.046000	1.512398
1.047000	1.531724
1.048000	1.540421
1.049000	1.562001
1.050000	1.581327
1.051000	1.587768
1.052000	1.617401
1.053000	1.637371
1.054000	1.628674
1.055000	1.616757
1.056000	1.601941
1.057000	1.566188
1.058000	1.543319
1.059000	1.534623
1.060000	1.541065
1.061000	1.547829
1.062000	1.559102
1.063000	1.571020
1.064000	1.560068
1.065000	1.532368
1.066000	1.518840
1.067000	1.512720
1.068000	1.510466
1.069000	1.506279
1.070000	1.517552
1.071000	1.551372
1.072000	1.559424
1.073000	1.550083
1.074000	1.553304
1.075000	1.574563
1.076000	1.605162
1.077000	1.590345
1.078000	1.578750
1.079000	1.570053
1.080000	1.582293
1.081000	1.602263
1.082000	1.630285
1.083000	1.642525
1.084000	1.626742
1.085000	1.600652
1.086000	1.575207
1.087000	1.556847
1.088000	1.553626
1.089000	1.571342
1.090000	1.575529
1.091000	1.592600
1.092000	1.619978
1.093000	1.669258
1.094000	1.715318
1.095000	1.714674
1.096000	1.715962
1.097000	1.705011
1.098000	1.666682
1.099000	1.627708
1.100000	1.598398
1.101000	1.588091
1.102000	1.586158
1.103000	1.595499
1.104000	1.594532
1.105000	1.590667
1.106000	1.589701
1.107000	1.581004
1.108000	1.576817
1.109000	1.577139
1.110000	1.578750
1.111000	1.571986
1.112000	1.568121
1.113000	1.558458
1.114000	1.551050
1.115000	1.556203
1.116000	1.547507
1.117000	1.548151
1.118000	1.550728
1.119000	1.565866
1.120000	1.584548
1.121000	1.593566
1.122000	1.594210
1.123000	1.597753
1.124000	1.597431
1.125000	1.592922
1.126000	1.594532
1.127000	1.593566
1.128000	1.592600
1.129000	1.582293
1.130000	1.576173
1.131000	1.571664
1.132000	1.560068
1.133000	1.562323
1.134000	1.559102
1.135000	1.562323
1.136000	1.562323
1.137000	1.567799
1.138000	1.584548
1.139000	1.594532
1.140000	1.588735
1.141000	1.581004
1.142000	1.581649
1.143000	1.585192
1.144000	1.580682
1.145000	1.577139
1.146000	1.569731
1.147000	1.561679
1.148000	1.553949
1.149000	1.546540
1.150000	1.551050
1.151000	1.562001
1.152000	1.576495
1.153000	1.585514
1.154000	1.569087
1.155000	1.558136
1.156000	1.558458
1.157000	1.535589
1.158000	1.527859
1.159000	1.540743
1.160000	1.556525
1.161000	1.561679
1.162000	1.558458
1.163000	1.540421
1.164000	1.548473
1.165000	1.559102
1.166000	1.573274
1.167000	1.602907
1.168000	1.590667
1.169000	1.578106
1.170000	1.588091
1.171000	1.587768
1.172000	1.582937
1.173000	1.569087
1.174000	1.567477
1.175000	1.586802
1.176000	1.609027
1.177000	1.621266
1.178000	1.590345
1.179000	1.548151
1.180000	1.523027
1.181000	1.535911
1.182000	1.552338
1.183000	1.569087
1.184000	1.581971
1.185000	1.602907
1.186000	1.625131
1.187000	1.632540
1.188000	1.638659
1.189000	1.628674
1.190000	1.591634
1.191000	1.542997
1.192000	1.499837
1.193000	1.480189
1.194000	1.481477
1.195000	1.513043
1.196000	1.543642
1.197000	1.594532
1.198000	1.628674
1.199000	1.649611
1.200000	1.680532
1.201000	1.679565
1.202000	1.658951
1.203000	1.646712
1.204000	1.638981
1.205000	1.637693
1.206000	1.625454
1.207000	1.621266
1.208000	1.617401
1.209000	1.607416
1.210000	1.604517
1.211000	1.594855
1.212000	1.581971
1.213000	1.572308
1.214000	1.566832
1.215000	1.563289
1.216000	1.569409
1.217000	1.577461
1.218000	1.590989
1.219000	1.601941
1.220000	1.597431
1.221000	1.595177
1.222000	1.580038
1.223000	1.562323
1.224000	1.559424
1.225000	1.561357
1.226000	1.587124
1.227000	1.589701
1.228000	1.599364
1.229000	1.588735
1.230000	1.586480
1.231000	1.574885
1.232000	1.559746
1.233000	1.557169
1.234000	1.571986
1.235000	1.577784
1.236000	1.545896
1.237000	1.510466
1.238000	1.485020
1.239000	1.491462
1.240000	1.532368
1.241000	1.567799
1.242000	1.605484
1.243000	1.629319
1.244000	1.626742
1.245000	1.608705
1.246000	1.587446
1.247000	1.569087
1.248000	1.553304
1.249000	1.559746
1.250000	1.547507
1.251000	1.553626
1.252000	1.575851
1.253000	1.602907
1.254000	1.608060
1.255000	1.597109
1.256000	1.563933
1.257000	1.530436
1.258000	1.497260
1.259000	1.469238
1.260000	1.458931
1.261000	1.475035
1.262000	1.503058
1.263000	1.543319
1.264000	1.574885
1.265000	1.600330
1.266000	1.631573
1.267000	1.626098
1.268000	1.601941
1.269000	1.573918
1.270000	1.551372
1.271000	1.549761
1.272000	1.542353
1.273000	1.550083
1.274000	1.575529
1.275000	1.601296
1.276000	1.608705
1.277000	1.617723
1.278000	1.629319
1.279000	1.652509
1.280000	1.667004
1.281000	1.663139
1.282000	1.679243
1.283000	1.671513
1.284000	1.648000
1.285000	1.635438
1.286000	1.636405
1.287000	1.619012
1.288000	1.599686
1.289000	1.587768
1.290000	1.579716
1.291000	1.572308
1.292000	1.597109
1.293000	1.633828
1.294000	1.635438
1.295000	1.598075
1.296000	1.566510
1.297000	1.534945
1.298000	1.528181
1.299000	1.535911
1.300000	1.547185
1.301000	1.556847
1.302000	1.592922
1.303000	1.611926
1.304000	1.618045
1.305000	1.605162
1.306000	1.591634
1.307000	1.575529
1.308000	1.569087
1.309000	1.566188
1.310000	1.581004
1.311000	1.578106
1.312000	1.590667
1.313000	1.581327
1.314000	1.581004
1.315000	1.570375
1.316000	1.568443
1.317000	1.569409
1.318000	1.568765
1.319000	1.579394
1.320000	1.590023
1.321000	1.587446
1.322000	1.581327
1.323000	1.569409
1.324000	1.565222
1.325000	1.567477
1.326000	1.589057
1.327000	1.597431
1.328000	1.591956
1.329000	1.578750
1.330000	1.556525
1.331000	1.542353
1.332000	1.533979
1.333000	1.523672
1.334000	1.511432
1.335000	1.509822
1.336000	1.523350
1.337000	1.537522
1.338000	1.553626
1.339000	1.582293
1.340000	1.600330
1.341000	1.601941
1.342000	1.578750
1.343000	1.568121
1.344000	1.544286
1.345000	1.522061
1.346000	1.525604
1.347000	1.549439
1.348000	1.570375
1.349000	1.604839
1.350000	1.655086
1.351000	1.651543
1.352000	1.636083
1.353000	1.577461
1.354000	1.530114
1.355000	1.508211
1.356000	1.505634
1.357000	1.471492
1.358000	1.451200
1.359000	1.457320
1.360000	1.486953
1.361000	1.530436
1.362000	1.569087
1.363000	1.582615
1.364000	1.580038
1.365000	1.608383
1.366000	1.627708
1.367000	1.636727
1.368000	1.627064
1.369000	1.645745
1.370000	1.678599
1.371000	1.710486
1.372000	1.711775
1.373000	1.690839
1.374000	1.673124
1.375000	1.654764
1.376000	1.642847
1.377000	1.631895
1.378000	1.625454
1.379000	1.609349
1.380000	1.595499
1.381000	1.586480
1.382000	1.587768
1.383000	1.591634
1.384000	1.577784
1.385000	1.557814
1.386000	1.537844
1.387000	1.533012
1.388000	1.529469
1.389000	1.537844
1.390000	1.547507
1.391000	1.582937
1.392000	1.608060
1.393000	1.618690
1.394000	1.612892
1.395000	1.599686
1.396000	1.588735
1.397000	1.578106
1.398000	1.570375
1.399000	1.565222
1.400000	1.559424
1.401000	1.547185
1.402000	1.561357
1.403000	1.549761
1.404000	1.543319
1.405000	1.544608
1.406000	1.561035
1.407000	1.577784
1.408000	1.592922
1.409000	1.596143
1.410000	1.578750
1.411000	1.551372
1.412000	1.538488
1.413000	1.533979
1.414000	1.531080
1.415000	1.549439
1.416000	1.579072
1.417000	1.612570
1.418000	1.620944
1.419000	1.615469
1.420000	1.603873
1.421000	1.617401
1.422000	1.604839
1.423000	1.581004
1.424000	1.545896
1.425000	1.537200
1.426000	1.543319
1.427000	1.561357
1.428000	1.567154
1.429000	1.574563
1.430000	1.565222
1.431000	1.567154
1.432000	1.551050
1.433000	1.540098
1.434000	1.547507
1.435000	1.571342
1.436000	1.581971
1.437000	1.574563
1.438000	1.563289
1.439000	1.553626
1.440000	1.561357
1.441000	1.586158
1.442000	1.586158
1.443000	1.571664
1.444000	1.563933
1.445000	1.579394
1.446000	1.594855
1.447000	1.607738
1.448000	1.595177
1.449000	1.600330
1.450000	1.622877
1.451000	1.616113
1.452000	1.623199
1.453000	1.618367
1.454000	1.603873
1.455000	1.577139
1.456000	1.566832
1.457000	1.562323
1.458000	1.570053
1.459000	1.581327
1.460000	1.580360
1.461000	1.578106
1.462000	1.561679
1.463000	1.542675
1.464000	1.536233
1.465000	1.558458
1.466000	1.581004
1.467000	1.572630
1.468000	1.562323
1.469000	1.562323
1.470000	1.549439
1.471000	1.542031
1.472000	1.536233
1.473000	1.541709
1.474000	1.566510
1.475000	1.597431
1.476000	1.624487
1.477000	1.616435
1.478000	1.607416
1.479000	1.601619
1.480000	1.576495
1.481000	1.566510
1.482000	1.572630
1.483000	1.568443
1.484000	1.574563
1.485000	1.607094
1.486000	1.624165
1.487000	1.621588
1.488000	1.600974
1.489000	1.581649
1.490000	1.570375
1.491000	1.571986
1.492000	1.574563
1.493000	1.582615
1.494000	1.580038
1.495000	1.575851
1.496000	1.567799
1.497000	1.561035
1.498000	1.561357
1.499000	1.570053
1.500000	1.575207
1.501000	1.584548
1.502000	1.596787
1.503000	1.612570
1.504000	1.628030
1.505000	1.612892
1.506000	1.577784
1.507000	1.548151
1.508000	1.542997
1.509000	1.532046
1.510000	1.507567
1.511000	1.495649
1.512000	1.513043
1.513000	1.539132
1.514000	1.568121
1.515000	1.587768
1.516000	1.611281
1.517000	1.619978
1.518000	1.575851
1.519000	1.500481
1.520000	1.439927
1.521000	1.405141
1.522000	1.402242
1.523000	1.431231
1.524000	1.445725
1.525000	1.476968
1.526000	1.567154
1.527000	1.657341
1.528000	1.700502
1.529000	1.703723
1.530000	1.716928
1.531000	1.713385
1.532000	1.709198
1.533000	1.712419
1.534000	1.687296
1.535000	1.678277
1.536000	1.687618
1.537000	1.673446
1.538000	1.657019
1.539000	1.645745
1.540000	1.621588
1.541000	1.600008
1.542000	1.595499
1.543000	1.590667
1.544000	1.592922
1.545000	1.585192
1.546000	1.581327
1.547000	1.562323
1.548000	1.559424
1.549000	1.571020
1.550000	1.592278
1.551000	1.617723
1.552000	1.617079
1.553000	1.611281
1.554000	1.605162
1.555000	1.580360
1.556000	1.534945
1.557000	1.507567
1.558000	1.505312
1.559000	1.518840
1.560000	1.544286
1.561000	1.572308
1.562000	1.599686
1.563000	1.623521
1.564000	1.635438
1.565000	1.631895
1.566000	1.588091
1.567000	1.556525
1.568000	1.535267
1.569000	1.531402
1.570000	1.530436
1.571000	1.527859
1.572000	1.529469
1.573000	1.542997
1.574000	1.560713
1.575000	1.575207
1.576000	1.602263
1.577000	1.636405
1.578000	1.631895
1.579000	1.622877
1.580000	1.625454
1.581000	1.619978
1.582000	1.609671
1.583000	1.599686
1.584000	1.594210
1.585000	1.600008
1.586000	1.604839
1.587000	1.609993
1.588000	1.606450
1.589000	1.590989
1.590000	1.573274
1.591000	1.578106
1.592000	1.579072
1.593000	1.573596
1.594000	1.561035
1.595000	1.543319
1.596000	1.525926
1.597000	1.509822
1.598000	1.505312
1.599000	1.532046
1.600000	1.551372
1.601000	1.545574
1.602000	1.550406
1.603000	1.546862
1.604000	1.554915
1.605000	1.559424
1.606000	1.556525
1.607000	1.560713
1.608000	1.588413
1.609000	1.601296
1.610000	1.619656
1.611000	1.621588
1.612000	1.611603
1.613000	1.587124
1.614000	1.573596
1.615000	1.553949
1.616000	1.543319
1.617000	1.542353
1.618000	1.557492
1.619000	1.559746
1.620000	1.573918
1.621000	1.587768
1.622000	1.598398
1.623000	1.614824
1.624000	1.616757
1.625000	1.610637
1.626000	1.628352
1.627000	1.638981
1.628000	1.650899
1.629000	1.648322
1.630000	1.621266
1.631000	1.594855
1.632000	1.583903
1.633000	1.576173
1.634000	1.571342
1.635000	1.571986
1.636000	1.571020
1.637000	1.575529
1.638000	1.575207
1.639000	1.582937
1.640000	1.590345
1.641000	1.590989
1.642000	1.590989
1.643000	1.586480
1.644000	1.588413
1.645000	1.586158
1.646000	1.583581
1.647000	1.584225
1.648000	1.589057
1.649000	1.579394
1.650000	1.564900
1.651000	1.557814
1.652000	1.556525
1.653000	1.551050
1.654000	1.541387
1.655000	1.539132
1.656000	1.542353
1.657000	1.530436
1.658000	1.524960
1.659000	1.535267
1.660000	1.552982
1.661000	1.557169
1.662000	1.584548
1.663000	1.626420
1.664000	1.615791
1.665000	1.577139
1.666000	1.599686
1.667000	1.607416
1.668000	1.607416
1.669000	1.605806
1.670000	1.605484
1.671000	1.604839
1.672000	1.609671
1.673000	1.611281
1.674000	1.600330
1.675000	1.596465
1.676000	1.587446
1.677000	1.581327
1.678000	1.578106
1.679000	1.574240
1.680000	1.570053
1.681000	1.556847
1.682000	1.520451
1.683000	1.474069
1.684000	1.458609
1.685000	1.472137
1.686000	1.495649
1.687000	1.548795
1.688000	1.590989
1.689000	1.622233
1.690000	1.632218
1.691000	1.626098
1.692000	1.643491
1.693000	1.647356
1.694000	1.638337
1.695000	1.615469
1.696000	1.600008
1.697000	1.589379
1.698000	1.571020
1.699000	1.560068
1.700000	1.545896
1.701000	1.538166
1.702000	1.529147
1.703000	1.501447
1.704000	1.486631
1.705000	1.475035
1.706000	1.452489
1.707000	1.433807
1.708000	1.410294
1.709000	1.424467
1.710000	1.471814
1.711000	1.543964
1.712000	1.609027
1.713000	1.685363
1.714000	1.731745
1.715000	1.743662
1.716000	1.742696
1.717000	1.728202
1.718000	1.703078
1.719000	1.682786
1.720000	1.671513
1.721000	1.686329
1.722000	1.690517
1.723000	1.670225
1.724000	1.651543
1.725000	1.638659
1.726000	1.628030
1.727000	1.613858
1.728000	1.604195
1.729000	1.615469
1.730000	1.611281
1.731000	1.595821
1.732000	1.577139
1.733000	1.565866
1.734000	1.557169
1.735000	1.547829
1.736000	1.539454
1.737000	1.550083
1.738000	1.579072
1.739000	1.596465
1.740000	1.596143
1.741000	1.591956
1.742000	1.584870
1.743000	1.580360
1.744000	1.572952
1.745000	1.566832
1.746000	1.558780
1.747000	1.553949
1.748000	1.562645
1.749000	1.582293
1.750000	1.578428
1.751000	1.581649
1.752000	1.571664
1.753000	1.563289
1.754000	1.556525
1.755000	1.555881
1.756000	1.558458
1.757000	1.558136
1.758000	1.552016
1.759000	1.548473
1.760000	1.544608
1.761000	1.537522
1.762000	1.534945
1.763000	1.530436
1.764000	1.532368
1.765000	1.537522
1.766000	1.539454
1.767000	1.521095
1.768000	1.518840
1.769000	1.520451
1.770000	1.546540
1.771000	1.619656
1.772000	1.657019
1.773000	1.660562
1.774000	1.638015
1.775000	1.621910
1.776000	1.610315
1.777000	1.598720
1.778000	1.583259
1.779000	1.564900
1.780000	1.556847
1.781000	1.548795
1.782000	1.549439
1.783000	1.556847
1.784000	1.537522
1.785000	1.537522
1.786000	1.538488
1.787000	1.575207
1.788000	1.609671
1.789000	1.630285
1.790000	1.628674
1.791000	1.621588
1.792000	1.593244
1.793000	1.552660
1.794000	1.526248
1.795000	1.521417
1.796000	1.544608
1.797000	1.556203
1.798000	1.576817
1.799000	1.592922
1.800000	1.612248
1.801000	1.605162
1.802000	1.613214
1.803000	1.627064
1.804000	1.633506
1.805000	1.611281
1.806000	1.565866
1.807000	1.525282
1.808000	1.498548
1.809000	1.490496
1.810000	1.517230
1.811000	1.545574
1.812000	1.584870
1.813000	1.604517
1.814000	1.617401
1.815000	1.629319
1.816000	1.637693
1.817000	1.646390
1.818000	1.656697
1.819000	1.643491
1.820000	1.626742
1.821000	1.612570
1.822000	1.604839
1.823000	1.585514
1.824000	1.582937
1.825000	1.572630
1.826000	1.540098
1.827000	1.523994
1.828000	1.532046
1.829000	1.559746
1.830000	1.588735
1.831000	1.594855
1.832000	1.589701
1.833000	1.588735
1.834000	1.600974
1.835000	1.635116
1.836000	1.651543
1.837000	1.654442
1.838000	1.652832
1.839000	1.646390
1.840000	1.640914
1.841000	1.633506
1.842000	1.618045
1.843000	1.594210
1.844000	1.575529
1.845000	1.560068
1.846000	1.551372
1.847000	1.555881
1.848000	1.565222
1.849000	1.563611
1.850000	1.557169
1.851000	1.563933
1.852000	1.571342
1.853000	1.578428
1.854000	1.575851
1.855000	1.573274
1.856000	1.576817
1.857000	1.567477
1.858000	1.577784
1.859000	1.571986
1.860000	1.571664
1.861000	1.554915
1.862000	1.527537
1.863000	1.492106
1.864000	1.459575
1.865000	1.450556
1.866000	1.460863
1.867000	1.490818
1.868000	1.527859
1.869000	1.577139
1.870000	1.606772
1.871000	1.626098
1.872000	1.643813
1.873000	1.655086
1.874000	1.664427
1.875000	1.654764
1.876000	1.637371
1.877000	1.639626
1.878000	1.628674
1.879000	1.619334
1.880000	1.606128
1.881000	1.590989
1.882000	1.530114
1.883000	1.469882
1.884000	1.448946
1.885000	1.466983
1.886000	1.481477
1.887000	1.499837
1.888000	1.536233
1.889000	1.592922
1.890000	1.645745
1.891000	1.649611
1.892000	1.648000
1.893000	1.642525
1.894000	1.618690
1.895000	1.595177
1.896000	1.596143
1.897000	1.602907
1.898000	1.594855
1.899000	1.547185
1.900000	1.511754
1.901000	1.510144
1.902000	1.533657
1.903000	1.580682
1.904000	1.604517
1.905000	1.598720
1.906000	1.604839
1.907000	1.617079
1.908000	1.641558
1.909000	1.641236
1.910000	1.638659
1.911000	1.640592
1.912000	1.628997
1.913000	1.601619
1.914000	1.579072
1.915000	1.565544
1.916000	1.576173
1.917000	1.590667
1.918000	1.598398
1.919000	1.613858
1.920000	1.619656
1.921000	1.621588
1.922000	1.604195
1.923000	1.603551
1.924000	1.598720
1.925000	1.597109
1.926000	1.580038
1.927000	1.562967
1.928000	1.554271
1.929000	1.556525
1.930000	1.557169
1.931000	1.557814
1.932000	1.555559
1.933000	1.560390
1.934000	1.560713
1.935000	1.564900
1.936000	1.569087
1.937000	1.580682
1.938000	1.591956
1.939000	1.602263
1.940000	1.603873
1.941000	1.600974
1.942000	1.601296
1.943000	1.602263
1.944000	1.592922
1.945000	1.587768
1.946000	1.570053
1.947000	1.567799
1.948000	1.565866
1.949000	1.559424
1.950000	1.556847
1.951000	1.559102
1.952000	1.556203
1.953000	1.550728
1.954000	1.546540
1.955000	1.548473
1.956000	1.544608
1.957000	1.549439
1.958000	1.552660
1.959000	1.572308
1.960000	1.600974
1.961000	1.617723
1.962000	1.619978
1.963000	1.623521
1.964000	1.614502
1.965000	1.608383
1.966000	1.601619
1.967000	1.590667
1.968000	1.576495
1.969000	1.559102
1.970000	1.524960
1.971000	1.494039
1.972000	1.476324
1.973000	1.472137
1.974000	1.486953
1.975000	1.525282
1.976000	1.544930
1.977000	1.526571
1.978000	1.530436
1.979000	1.519807
1.980000	1.520451
1.981000	1.533334
1.982000	1.542031
1.983000	1.570375
1.984000	1.610637
1.985000	1.643813
1.986000	1.645423
1.987000	1.653476
1.988000	1.654120
1.989000	1.650899
1.990000	1.639948
1.991000	1.622233
1.992000	1.604839
1.993000	1.608705
1.994000	1.621910
1.995000	1.633828
1.996000	1.635438
1.997000	1.625454
1.998000	1.609993
1.999000	1.608060
2.000000	1.633828
2.001000	1.636083
2.002000	1.624165
2.003000	1.605806
2.004000	1.575851
2.005000	1.536878
2.006000	1.513043
2.007000	1.508855
2.008000	1.509499
2.009000	1.534945
2.010000	1.574563
2.011000	1.604517
2.012000	1.621266
2.013000	1.615147
2.014000	1.621588
2.015000	1.635761
2.016000	1.628352
2.017000	1.603229
2.018000	1.592600
2.019000	1.588091
2.020000	1.599042
2.021000	1.603551
2.022000	1.609993
2.023000	1.612892
2.024000	1.618045
2.025000	1.616113
2.026000	1.607094
2.027000	1.596465
2.028000	1.581971
2.029000	1.564900
2.030000	1.552660
2.031000	1.538488
2.032000	1.524316
2.033000	1.517874
2.034000	1.504346
2.035000	1.492106
2.036000	1.466339
2.037000	1.433163
2.038000	1.428654
2.039000	1.450878
2.040000	1.487275
2.041000	1.541387
2.042000	1.614502
2.043000	1.669580
2.044000	1.670547
2.045000	1.654764
2.046000	1.643491
2.047000	1.625454
2.048000	1.635116
2.049000	1.628030
2.050000	1.615147
2.051000	1.616757
2.052000	1.611281
2.053000	1.609349
2.054000	1.591312
2.055000	1.586802
2.056000	1.588413
2.057000	1.574885
2.058000	1.571020
2.059000	1.580682
2.060000	1.590989
2.061000	1.596787
2.062000	1.597753
2.063000	1.580360
2.064000	1.573274
2.065000	1.563611
2.066000	1.530436
2.067000	1.510144
2.068000	1.494361
2.069000	1.492428
2.070000	1.520129
2.071000	1.558780
2.072000	1.593888
2.073000	1.626742
2.074000	1.648966
2.075000	1.654442
2.076000	1.646712
2.077000	1.629319
2.078000	1.608705
2.079000	1.604839
2.080000	1.593244
2.081000	1.571664
2.082000	1.552338
2.083000	1.525282
2.084000	1.524316
2.085000	1.545896
2.086000	1.540098
2.087000	1.527215
2.088000	1.525604
2.089000	1.523027
2.090000	1.536233
2.091000	1.550728
2.092000	1.587446
2.093000	1.624487
2.094000	1.649611
2.095000	1.644779
2.096000	1.626742
2.097000	1.626420
2.098000	1.637371
2.099000	1.623199
2.100000	1.593566
2.101000	1.577784
2.102000	1.563933
2.103000	1.568765
2.104000	1.579072
2.105000	1.602907
2.106000	1.586802
2.107000	1.559102
2.108000	1.542031
2.109000	1.520129
2.110000	1.511432
2.111000	1.518196
2.112000	1.527859
2.113000	1.547829
2.114000	1.568443
2.115000	1.582937
2.116000	1.621910
2.117000	1.646390
2.118000	1.648322
2.119000	1.643169
2.120000	1.632540
2.121000	1.618690
2.122000	1.634794
2.123000	1.632540
2.124000	1.624487
2.125000	1.615469
2.126000	1.604839
2.127000	1.595499
2.128000	1.588413
2.129000	1.584870
2.130000	1.589057
2.131000	1.584225
2.132000	1.574563
2.133000	1.568443
2.134000	1.562645
2.135000	1.576495
2.136000	1.583903
2.137000	1.582615
2.138000	1.577461
2.139000	1.579394
2.140000	1.579394
2.141000	1.573918
2.142000	1.554593
2.143000	1.510144
2.144000	1.494039
2.145000	1.497260
2.146000	1.512398
2.147000	1.527215
2.148000	1.552982
2.149000	1.586158
2.150000	1.618690
2.151000	1.600652
2.152000	1.593244
2.153000	1.585192
2.154000	1.569731
2.155000	1.565222
2.156000	1.563611
2.157000	1.547185
2.158000	1.550083
2.159000	1.557814
2.160000	1.552016
2.161000	1.547829
2.162000	1.495972
2.163000	1.457320
2.164000	1.472137
2.165000	1.518840
2.166000	1.563611
2.167000	1.622877
2.168000	1.686007
2.169000	1.746561
2.170000	1.755258
2.171000	1.735288
2.172000	1.705011
2.173000	1.663139
2.174000	1.640270
2.175000	1.653154
2.176000	1.644457
2.177000	1.625131
2.178000	1.600330
2.179000	1.559746
2.180000	1.533012
2.181000	1.516263
2.182000	1.498548
2.183000	1.487275
2.184000	1.485020
2.185000	1.488241
2.186000	1.515619
2.187000	1.546862
2.188000	1.568121
2.189000	1.562001
2.190000	1.537844
2.191000	1.499515
2.192000	1.490174
2.193000	1.513687
2.194000	1.556203
2.195000	1.612248
2.196000	1.658951
2.197000	1.693738
2.198000	1.688906
2.199000	1.665393
2.200000	1.656053
2.201000	1.638337
2.202000	1.632540
2.203000	1.631895
2.204000	1.619978
2.205000	1.615791
2.206000	1.611603
2.207000	1.609993
2.208000	1.609671
2.209000	1.610315
2.210000	1.594210
2.211000	1.576495
2.212000	1.568443
2.213000	1.567477
2.214000	1.566188
2.215000	1.563933
2.216000	1.559102
2.217000	1.555237
2.218000	1.555881
2.219000	1.563611
2.220000	1.572630
2.221000	1.574885
2.222000	1.578106
2.223000	1.597431
2.224000	1.607738
2.225000	1.601619
2.226000	1.569409
2.227000	1.556847
2.228000	1.545896
2.229000	1.534301
2.230000	1.528825
2.231000	1.539132
2.232000	1.550728
2.233000	1.566510
2.234000	1.585836
2.235000	1.589057
2.236000	1.586802
2.237000	1.578106
2.238000	1.574563
2.239000	1.575529
2.240000	1.535267
2.241000	1.466017
2.242000	1.408362
2.243000	1.369066
2.244000	1.385493
2.245000	1.427043
2.246000	1.483410
2.247000	1.550728
2.248000	1.618367
2.249000	1.682786
2.250000	1.773295
2.251000	1.794553
2.252000	1.766853
2.253000	1.741408
2.254000	1.706943
2.255000	1.674412
2.256000	1.657985
2.257000	1.632862
2.258000	1.622877
2.259000	1.608383
2.260000	1.599686
2.261000	1.591312
2.262000	1.582615
2.263000	1.582615
2.264000	1.575529
2.265000	1.570375
2.266000	1.568765
2.267000	1.566188
2.268000	1.576495
2.269000	1.548151
2.270000	1.533334
2.271000	1.520451
2.272000	1.504990
2.273000	1.463118
2.274000	1.437995
2.275000	1.430586
2.276000	1.464406
2.277000	1.513365
2.278000	1.530758
2.279000	1.534301
2.280000	1.554915
2.281000	1.585514
2.282000	1.652509
2.283000	1.709198
2.284000	1.715318
2.285000	1.727558
2.286000	1.721760
2.287000	1.703078
2.288000	1.680210
2.289000	1.675378
2.290000	1.667326
2.291000	1.659596
2.292000	1.645101
2.293000	1.627708
2.294000	1.616435
2.295000	1.601941
2.296000	1.580682
2.297000	1.576817
2.298000	1.570053
2.299000	1.563611
2.300000	1.552338
2.301000	1.546218
2.302000	1.551372
2.303000	1.534301
2.304000	1.529791
2.305000	1.531724
2.306000	1.545896
2.307000	1.575529
2.308000	1.589057
2.309000	1.586480
2.310000	1.587446
2.311000	1.588091
2.312000	1.576495
2.313000	1.581004
2.314000	1.595177
2.315000	1.579716
2.316000	1.577139
2.317000	1.564578
2.318000	1.563289
2.319000	1.573918
2.320000	1.581327
2.321000	1.579394
2.322000	1.561679
2.323000	1.546862
2.324000	1.539454
2.325000	1.541387
2.326000	1.534945
2.327000	1.514653
2.328000	1.523994
2.329000	1.558458
2.330000	1.567154
2.331000	1.572630
2.332000	1.558458
2.333000	1.549761
2.334000	1.549117
2.335000	1.552016
2.336000	1.571020
2.337000	1.600330
2.338000	1.602585
2.339000	1.611926
2.340000	1.648966
2.341000	1.632540
2.342000	1.609671
2.343000	1.593566
2.344000	1.580038
2.345000	1.577139
2.346000	1.573596
2.347000	1.585836
2.348000	1.596465
2.349000	1.595499
2.350000	1.591634
2.351000	1.583581
2.352000	1.573596
2.353000	1.567799
2.354000	1.571664
2.355000	1.583259
2.356000	1.597109
2.357000	1.603551
2.358000	1.610315
2.359000	1.591956
2.360000	1.571020
2.361000	1.554271
2.362000	1.555237
2.363000	1.545252
2.364000	1.527537
2.365000	1.493717
2.366000	1.460219
2.367000	1.429298
2.368000	1.411261
2.369000	1.425433
2.370000	1.458609
2.371000	1.527215
2.372000	1.567477
2.373000	1.601619
2.374000	1.632862
2.375000	1.677955
2.376000	1.707910
2.377000	1.690839
2.378000	1.673446
2.379000	1.655408
2.380000	1.654442
2.381000	1.641236
2.382000	1.638659
2.383000	1.634794
2.384000	1.614824
2.385000	1.610315
2.386000	1.592922
2.387000	1.581327
2.388000	1.555881
2.389000	1.539132
2.390000	1.536555
2.391000	1.548473
2.392000	1.568443
2.393000	1.593888
2.394000	1.617401
2.395000	1.643169
2.396000	1.644457
2.397000	1.641558
2.398000	1.625454
2.399000	1.603551
2.400000	1.587124
2.401000	1.581649
2.402000	1.581649
2.403000	1.585192
2.404000	1.588413
2.405000	1.588413
2.406000	1.606772
2.407000	1.619978
2.408000	1.617723
2.409000	1.610637
2.410000	1.602585
2.411000	1.596787
2.412000	1.594532
2.413000	1.583581
2.414000	1.546862
2.415000	1.495649
2.416000	1.441538
2.417000	1.414482
2.418000	1.433485
2.419000	1.466983
2.420000	1.515619
2.421000	1.577461
2.422000	1.639948
2.423000	1.676989
2.424000	1.681176
2.425000	1.662816
2.426000	1.630285
2.427000	1.606772
2.428000	1.583903
2.429000	1.583581
2.430000	1.577784
2.431000	1.564256
2.432000	1.550728
2.433000	1.544608
2.434000	1.520129
2.435000	1.501125
2.436000	1.515619
2.437000	1.552660
2.438000	1.563611
2.439000	1.590667
2.440000	1.607738
2.441000	1.634794
2.442000	1.648322
2.443000	1.630929
2.444000	1.618045
2.445000	1.630607
2.446000	1.630607
2.447000	1.622233
2.448000	1.617401
2.449000	1.618045
2.450000	1.613214
2.451000	1.601941
2.452000	1.596787
2.453000	1.598398
2.454000	1.597109
2.455000	1.585514
2.456000	1.574885
2.457000	1.566832
2.458000	1.562323
2.459000	1.552982
2.460000	1.544608
2.461000	1.515941
2.462000	1.455388
2.463000	1.414482
2.464000	1.421246
2.465000	1.471170
2.466000	1.517874
2.467000	1.574885
2.468000	1.592922
2.469000	1.624487
2.470000	1.664749
2.471000	1.667648
2.472000	1.653154
2.473000	1.660240
2.474000	1.641558
2.475000	1.629963
2.476000	1.601941
2.477000	1.573274
2.478000	1.569409
2.479000	1.574885
2.480000	1.611926
2.481000	1.655408
2.482000	1.642847
2.483000	1.619012
2.484000	1.605162
2.485000	1.603873
2.486000	1.597753
2.487000	1.603873
2.488000	1.611281
2.489000	1.622233
2.490000	1.619978
2.491000	1.609349
2.492000	1.575851
2.493000	1.540098
2.494000	1.523672
2.495000	1.535911
2.496000	1.552982
2.497000	1.553304
2.498000	1.529469
2.499000	1.507889
2.500000	1.507889
2.501000	1.523350
2.502000	1.534945
2.503000	1.559424
2.504000	1.596465
2.505000	1.625131
2.506000	1.641558
2.507000	1.632218
2.508000	1.621910
2.509000	1.614824
2.510000	1.600330
2.511000	1.586158
2.512000	1.570375
2.513000	1.558458
2.514000	1.543319
2.515000	1.555559
2.516000	1.564256
2.517000	1.562001
2.518000	1.550406
2.519000	1.534623
2.520000	1.527215
2.521000	1.535267
2.522000	1.548151
2.523000	1.572952
2.524000	1.579716
2.525000	1.576495
2.526000	1.588091
2.527000	1.603873
2.528000	1.606128
2.529000	1.603873
2.530000	1.581971
2.531000	1.557814
2.532000	1.539454
2.533000	1.539454
2.534000	1.534301
2.535000	1.545896
2.536000	1.572308
2.537000	1.579716
2.538000	1.570697
2.539000	1.572630
2.540000	1.586158
2.541000	1.599042
2.542000	1.591312
2.543000	1.596465
2.544000	1.614180
2.545000	1.601619
2.546000	1.575851
2.547000	1.560390
2.548000	1.543319
2.549000	1.530758
2.550000	1.502413
2.551000	1.473425
2.552000	1.470204
2.553000	1.502091
2.554000	1.562645
2.555000	1.658629
2.556000	1.724014
2.557000	1.755902
2.558000	1.737865
2.559000	1.717250
2.560000	1.696636
2.561000	1.666360
2.562000	1.646390
2.563000	1.639304
2.564000	1.640270
2.565000	1.625454
2.566000	1.606450
2.567000	1.591312
2.568000	1.568443
2.569000	1.552660
2.570000	1.535267
2.571000	1.542997
2.572000	1.534945
2.573000	1.565544
2.574000	1.590023
2.575000	1.607094
2.576000	1.644457
2.577000	1.632862
2.578000	1.599042
2.579000	1.585192
2.580000	1.576817
2.581000	1.566832
2.582000	1.563289
2.583000	1.564900
2.584000	1.555881
2.585000	1.553304
2.586000	1.577139
2.587000	1.593244
2.588000	1.594532
2.589000	1.587768
2.590000	1.572952
2.591000	1.561357
2.592000	1.556203
2.593000	1.555237
2.594000	1.545896
2.595000	1.538488
2.596000	1.552982
2.597000	1.564900
2.598000	1.557169
2.599000	1.553626
2.600000	1.549117
2.601000	1.554915
2.602000	1.547185
2.603000	1.527537
2.604000	1.512720
2.605000	1.501447
2.606000	1.483088
2.607000	1.489530
2.608000	1.512076
2.609000	1.539776
2.610000	1.576173
2.611000	1.598075
2.612000	1.611603
2.613000	1.609027
2.614000	1.627064
2.615000	1.635116
2.616000	1.636083
2.617000	1.618045
2.618000	1.577461
2.619000	1.546218
2.620000	1.533657
2.621000	1.520773
2.622000	1.498548
2.623000	1.499837
2.624000	1.512720
2.625000	1.545896
2.626000	1.590667
2.627000	1.622877
2.628000	1.661528
2.629000	1.688262
2.630000	1.670547
2.631000	1.654442
2.632000	1.653798
2.633000	1.645423
2.634000	1.635761
2.635000	1.638015
2.636000	1.643169
2.637000	1.627064
2.638000	1.602907
2.639000	1.570375
2.640000	1.552660
2.641000	1.528503
2.642000	1.525926
2.643000	1.534623
2.644000	1.565866
2.645000	1.581971
2.646000	1.560713
2.647000	1.537200
2.648000	1.522705
2.649000	1.532690
2.650000	1.534945
2.651000	1.560068
2.652000	1.571986
2.653000	1.606128
2.654000	1.625454
2.655000	1.630285
2.656000	1.624809
2.657000	1.620622
2.658000	1.629319
2.659000	1.633506
2.660000	1.620622
2.661000	1.595821
2.662000	1.600330
2.663000	1.591312
2.664000	1.573274
2.665000	1.562967
2.666000	1.556203
2.667000	1.553949
2.668000	1.557492
2.669000	1.560713
2.670000	1.565544
2.671000	1.572630
2.672000	1.543642
2.673000	1.513687
2.674000	1.502413
2.675000	1.509177
2.676000	1.513365
2.677000	1.530436
2.678000	1.560713
2.679000	1.601941
2.680000	1.629963
2.681000	1.611281
2.682000	1.595499
2.683000	1.600008
2.684000	1.603873
2.685000	1.621910
2.686000	1.612892
2.687000	1.593566
2.688000	1.570375
2.689000	1.559102
2.690000	1.565544
2.691000	1.567799
2.692000	1.541065
2.693000	1.516263
2.694000	1.511754
2.695000	1.539454
2.696000	1.570375
2.697000	1.600008
2.698000	1.628352
2.699000	1.639626
2.700000	1.643813
2.701000	1.604517
2.702000	1.575207
2.703000	1.564578
2.704000	1.564256
2.705000	1.565222
2.706000	1.568443
2.707000	1.563289
2.708000	1.582615
2.709000	1.579072
2.710000	1.559424
2.711000	1.550083
2.712000	1.539454
2.713000	1.545896
2.714000	1.569731
2.715000	1.592922
2.716000	1.612570
2.717000	1.617401
2.718000	1.608383
2.719000	1.604195
2.720000	1.590345
2.721000	1.568443
2.722000	1.550728
2.723000	1.560390
2.724000	1.572952
2.725000	1.575851
2.726000	1.584225
2.727000	1.601619
2.728000	1.607416
2.729000	1.590667
2.730000	1.583581
2.731000	1.575207
2.732000	1.538810
2.733000	1.513043
2.734000	1.499192
2.735000	1.539132
2.736000	1.584225
2.737000	1.616757
2.738000	1.646068
2.739000	1.671191
2.740000	1.667648
2.741000	1.654442
2.742000	1.638659
2.743000	1.616757
2.744000	1.600330
2.745000	1.597431
2.746000	1.588091
2.747000	1.582293
2.748000	1.568121
2.749000	1.550083
2.750000	1.520129
2.751000	1.504024
2.752000	1.506279
2.753000	1.521417
2.754000	1.536878
2.755000	1.558458
2.756000	1.565866
2.757000	1.571020
2.758000	1.574240
2.759000	1.578428
2.760000	1.583581
2.761000	1.578106
2.762000	1.579716
2.763000	1.593244
2.764000	1.607738
2.765000	1.619012
2.766000	1.622233
2.767000	1.620944
2.768000	1.605806
2.769000	1.595177
2.770000	1.600974
2.771000	1.604195
2.772000	1.604517
2.773000	1.595821
2.774000	1.582937
2.775000	1.574240
2.776000	1.559102
2.777000	1.556847
2.778000	1.537844
2.779000	1.514653
2.780000	1.466017
2.781000	1.432841
2.782000	1.426077
2.783000	1.440893
2.784000	1.463762
2.785000	1.496616
2.786000	1.547507
2.787000	1.620622
2.788000	1.693093
2.789000	1.711453
2.790000	1.703400
2.791000	1.700824
2.792000	1.695670
2.793000	1.671513
2.794000	1.646068
2.795000	1.625776
2.796000	1.597753
2.797000	1.572630
2.798000	1.580038
2.799000	1.577784
2.800000	1.578428
2.801000	1.580360
2.802000	1.578750
2.803000	1.583903
2.804000	1.596787
2.805000	1.592600
2.806000	1.582293
2.807000	1.576173
2.808000	1.571342
2.809000	1.562645
2.810000	1.568443
2.811000	1.585514
2.812000	1.592922
2.813000	1.572308
2.814000	1.524638
2.815000	1.495005
2.816000	1.486953
2.817000	1.486309
2.818000	1.486953
2.819000	1.508533
2.820000	1.533334
2.821000	1.560068
2.822000	1.580360
2.823000	1.599364
2.824000	1.649933
2.825000	1.702434
2.826000	1.696636
2.827000	1.663783
2.828000	1.639304
2.829000	1.630285
2.830000	1.619012
2.831000	1.602907
2.832000	1.586480
2.833000	1.586158
2.834000	1.571664
2.835000	1.585836
2.836000	1.586802
2.837000	1.607094
2.838000	1.596143
2.839000	1.585192
2.840000	1.569087
2.841000	1.553626
2.842000	1.547829
2.843000	1.541709
2.844000	1.546540
2.845000	1.566188
2.846000	1.585192
2.847000	1.580360
2.848000	1.582937
2.849000	1.590667
2.850000	1.586158
2.851000	1.585514
2.852000	1.589379
2.853000	1.593888
2.854000	1.590023
2.855000	1.566510
2.856000	1.553304
2.857000	1.558458
2.858000	1.568443
2.859000	1.609027
2.860000	1.629963
2.861000	1.619334
2.862000	1.598398
2.863000	1.577461
2.864000	1.562323
2.865000	1.561035
2.866000	1.562645
2.867000	1.557814
2.868000	1.555881
2.869000	1.562001
2.870000	1.559102
2.871000	1.542675
2.872000	1.523994
2.873000	1.527215
2.874000	1.511754
2.875000	1.445725
2.876000	1.391291
2.877000	1.390969
2.878000	1.438961
2.879000	1.479545
2.880000	1.519807
2.881000	1.575851
2.882000	1.660884
2.883000	1.716284
2.884000	1.699535
2.885000	1.693415
2.886000	1.686007
2.887000	1.666037
2.888000	1.652187
2.889000	1.635438
2.890000	1.631251
2.891000	1.628674
2.892000	1.628674
2.893000	1.620300
2.894000	1.607094
2.895000	1.587124
2.896000	1.570375
2.897000	1.551372
2.898000	1.525926
2.899000	1.500481
2.900000	1.467305
2.901000	1.464728
2.902000	1.510466
2.903000	1.543319
2.904000	1.556847
2.905000	1.566832
2.906000	1.585514
2.907000	1.619334
2.908000	1.642202
2.909000	1.669903
2.910000	1.676667
2.911000	1.673124
2.912000	1.653154
2.913000	1.616757
2.914000	1.584548
2.915000	1.558136
2.916000	1.544286
2.917000	1.519484
2.918000	1.506923
2.919000	1.524960
2.920000	1.562967
2.921000	1.594210
2.922000	1.615469
2.923000	1.616113
2.924000	1.619012
2.925000	1.624165
2.926000	1.624809
2.927000	1.609349
2.928000	1.608383
2.929000	1.611603
2.930000	1.623199
2.931000	1.642525
2.932000	1.643169
2.933000	1.635438
2.934000	1.605484
2.935000	1.592278
2.936000	1.589057
2.937000	1.581004
2.938000	1.582293
2.939000	1.592600
2.940000	1.595177
2.941000	1.586802
2.942000	1.578106
2.943000	1.558136
2.944000	1.549439
2.945000	1.543642
2.946000	1.534945
2.947000	1.505312
2.948000	1.469560
2.949000	1.442826
2.950000	1.428332
2.951000	1.429298
2.952000	1.456998
2.953000	1.497260
2.954000	1.560713
2.955000	1.605162
2.956000	1.619334
2.957000	1.648322
2.958000	1.678277
2.959000	1.681498
2.960000	1.676667
2.961000	1.654764
2.962000	1.620622
2.963000	1.591956
2.964000	1.577784
2.965000	1.572952
2.966000	1.569087
2.967000	1.549439
2.968000	1.523994
2.969000	1.526893
2.970000	1.542353
2.971000	1.562323
2.972000	1.577784
2.973000	1.584870
2.974000	1.582293
2.975000	1.577461
2.976000	1.558780
2.977000	1.573274
2.978000	1.587124
2.979000	1.579394
2.980000	1.575529
2.981000	1.568121
2.982000	1.543642
2.983000	1.522705
2.984000	1.547829
2.985000	1.607738
2.986000	1.628674
2.987000	1.624487
2.988000	1.607416
2.989000	1.609349
2.990000	1.602585
2.991000	1.608705
2.992000	1.610315
2.993000	1.621266
2.994000	1.641880
2.995000	1.651221
2.996000	1.648644
2.997000	1.661206
2.998000	1.638981
2.999000	1.589057
3.000000	1.519162
3.001000	1.481799
3.002000	1.470526
3.003000	1.465050
3.004000	1.478578
3.005000	1.500481
3.006000	1.549117
3.007000	1.618690
3.008000	1.663783
3.009000	1.685363
3.010000	1.694704
3.011000	1.675056
3.012000	1.662172
3.013000	1.638659
3.014000	1.620944
3.015000	1.615469
3.016000	1.613858
3.017000	1.602585
3.018000	1.581327
3.019000	1.568443
3.020000	1.568765
3.021000	1.572630
3.022000	1.570053
3.023000	1.570375
3.024000	1.569731
3.025000	1.572630
3.026000	1.561679
3.027000	1.567154
3.028000	1.546218
3.029000	1.554915
3.030000	1.569731
3.031000	1.569731
3.032000	1.569731
3.033000	1.579072
3.034000	1.583903
3.035000	1.591956
3.036000	1.589701
3.037000	1.583581
3.038000	1.585836
3.039000	1.581004
3.040000	1.580038
3.041000	1.566832
3.042000	1.546862
3.043000	1.525926
3.044000	1.523994
3.045000	1.528825
3.046000	1.530758
3.047000	1.527859
3.048000	1.536555
3.049000	1.548795
3.050000	1.548151
3.051000	1.548795
3.052000	1.560390
3.053000	1.584225
3.054000	1.619334
3.055000	1.587768
3.056000	1.544286
3.057000	1.526893
3.058000	1.533979
3.059000	1.547185
3.060000	1.576173
3.061000	1.608383
3.062000	1.630285
3.063000	1.638659
3.064000	1.645423
3.065000	1.644779
3.066000	1.641880
3.067000	1.639948
3.068000	1.630929
3.069000	1.623199
3.070000	1.613536
3.071000	1.598720
3.072000	1.573274
3.073000	1.561357
3.074000	1.542997
3.075000	1.466983
3.076000	1.403208
3.077000	1.375508
3.078000	1.375508
3.079000	1.417380
3.080000	1.488241
3.081000	1.572308
3.082000	1.660240
3.083000	1.716284
3.084000	1.745917
3.085000	1.740441
3.086000	1.687618
3.087000	1.648644
3.088000	1.615469
3.089000	1.606128
3.090000	1.614502
3.091000	1.632862
3.092000	1.642525
3.093000	1.640270
3.094000	1.629319
3.095000	1.624165
3.096000	1.607416
3.097000	1.567477
3.098000	1.509499
3.099000	1.456676
3.100000	1.429620
3.101000	1.435740
3.102000	1.458931
3.103000	1.494361
3.104000	1.539132
3.105000	1.595177
3.106000	1.659273
3.107000	1.664749
3.108000	1.656053
3.109000	1.642847
3.110000	1.623199
3.111000	1.615147
3.112000	1.609993
3.113000	1.591312
3.114000	1.585836
3.115000	1.570375
3.116000	1.548151
3.117000	1.541065
3.118000	1.569731
3.119000	1.603229
3.120000	1.606128
3.121000	1.591956
3.122000	1.572952
3.123000	1.557492
3.124000	1.553304
3.125000	1.563611
3.126000	1.561357
3.127000	1.558458
3.128000	1.572952
3.129000	1.609671
3.130000	1.635116
3.131000	1.631895
3.132000	1.616757
3.133000	1.604839
3.134000	1.600974
3.135000	1.608060
3.136000	1.612892
3.137000	1.615469
3.138000	1.613858
3.139000	1.609671
3.140000	1.607094
3.141000	1.595177
3.142000	1.590989
3.143000	1.573918
3.144000	1.559746
3.145000	1.556203
3.146000	1.554593
3.147000	1.545252
3.148000	1.523350
3.149000	1.499515
3.150000	1.487919
3.151000	1.498226
3.152000	1.505956
3.153000	1.518196
3.154000	1.546862
3.155000	1.598720
3.156000	1.643491
3.157000	1.651221
3.158000	1.659918
3.159000	1.649289
3.160000	1.634150
3.161000	1.616435
3.162000	1.603873
3.163000	1.594855
3.164000	1.583581
3.165000	1.569731
3.166000	1.568443
3.167000	1.558780
3.168000	1.563933
3.169000	1.562645
3.170000	1.571986
3.171000	1.581327
3.172000	1.564578
3.173000	1.556525
3.174000	1.538166
3.175000	1.566832
3.176000	1.595177
3.177000	1.610959
3.178000	1.607738
3.179000	1.589057
3.180000	1.571342
3.181000	1.552338
3.182000	1.554593
3.183000	1.566510
3.184000	1.571342
3.185000	1.590667
3.186000	1.594855
3.187000	1.604195
3.188000	1.583259
3.189000	1.555881
3.190000	1.536555
3.191000	1.521417
3.192000	1.510144
3.193000	1.506279
3.194000	1.514653
3.195000	1.532368
3.196000	1.519484
3.197000	1.527859
3.198000	1.557169
3.199000	1.571342
3.200000	1.587124
3.201000	1.606772
3.202000	1.639948
3.203000	1.676022
3.204000	1.697281
3.205000	1.698569
3.206000	1.682464
3.207000	1.647678
3.208000	1.589701
3.209000	1.550406
3.210000	1.532690
3.211000	1.536555
3.212000	1.557814
3.213000	1.575851
3.214000	1.609349
3.215000	1.621266
3.216000	1.619334
3.217000	1.602585
3.218000	1.573274
3.219000	1.555881
3.220000	1.539454
3.221000	1.532368
3.222000	1.539776
3.223000	1.556203
3.224000	1.564256
3.225000	1.593566
3.226000	1.605162
3.227000	1.593566
3.228000	1.598720
3.229000	1.612248
3.230000	1.619012
3.231000	1.606128
3.232000	1.602585
3.233000	1.586802
3.234000	1.552016
3.235000	1.535911
3.236000	1.533657
3.237000	1.542997
3.238000	1.550083
3.239000	1.526248
3.240000	1.525282
3.241000	1.534301
3.242000	1.538810
3.243000	1.529791
3.244000	1.524316
3.245000	1.525926
3.246000	1.539454
3.247000	1.564900
3.248000	1.584870
3.249000	1.603873
3.250000	1.625776
3.251000	1.653798
3.252000	1.670869
3.253000	1.689550
3.254000	1.685041
3.255000	1.661850
3.256000	1.647678
3.257000	1.647678
3.258000	1.631251
3.259000	1.631895
3.260000	1.611926
3.261000	1.560713
3.262000	1.518518
3.263000	1.504668
3.264000	1.519807
3.265000	1.551050
3.266000	1.563933
3.267000	1.571020
3.268000	1.567799
3.269000	1.560068
3.270000	1.556847
3.271000	1.548151
3.272000	1.536233
3.273000	1.528181
3.274000	1.516908
3.275000	1.505956
3.276000	1.497904
3.277000	1.498226
3.278000	1.500803
3.279000	1.523672
3.280000	1.571986
3.281000	1.612570
3.282000	1.648000
3.283000	1.651221
3.284000	1.631573
3.285000	1.625131
3.286000	1.619978
3.287000	1.604517
3.288000	1.599042
3.289000	1.581971
3.290000	1.567477
3.291000	1.562323
3.292000	1.562645
3.293000	1.563611
3.294000	1.567799
3.295000	1.575529
3.296000	1.586802
3.297000	1.593244
3.298000	1.577784
3.299000	1.550728
3.300000	1.541065
3.301000	1.550406
3.302000	1.558136
3.303000	1.581004
3.304000	1.592278
3.305000	1.608060
3.306000	1.612570
3.307000	1.614502
3.308000	1.612570
3.309000	1.619978
3.310000	1.626742
3.311000	1.624487
3.312000	1.618367
3.313000	1.609993
3.314000	1.600652
3.315000	1.592922
3.316000	1.594532
3.317000	1.590345
3.318000	1.587768
3.319000	1.593244
3.320000	1.580682
3.321000	1.562001
3.322000	1.548795
3.323000	1.534945
3.324000	1.525282
3.325000	1.523994
3.326000	1.516908
3.327000	1.523672
3.328000	1.523994
3.329000	1.498870
3.330000	1.467627
3.331000	1.445403
3.332000	1.449268
3.333000	1.506923
3.334000	1.589379
3.335000	1.617401
3.336000	1.619334
3.337000	1.648000
3.338000	1.648966
3.339000	1.646712
3.340000	1.670869
3.341000	1.679565
3.342000	1.685363
3.343000	1.680532
3.344000	1.651865
3.345000	1.618690
3.346000	1.589057
3.347000	1.571020
3.348000	1.554271
3.349000	1.556847
3.350000	1.565222
3.351000	1.573596
3.352000	1.572630
3.353000	1.565222
3.354000	1.563611
3.355000	1.561357
3.356000	1.560068
3.357000	1.553304
3.358000	1.553626
3.359000	1.546862
3.360000	1.563611
3.361000	1.572308
3.362000	1.598720
3.363000	1.625776
3.364000	1.624165
3.365000	1.634472
3.366000	1.657985
3.367000	1.655730
3.368000	1.634794
3.369000	1.620944
3.370000	1.596143
3.371000	1.556525
3.372000	1.538810
3.373000	1.547829
3.374000	1.555881
3.375000	1.569087
3.376000	1.587124
3.377000	1.606450
3.378000	1.625776
3.379000	1.628030
3.380000	1.613536
3.381000	1.597109
3.382000	1.592922
3.383000	1.544930
3.384000	1.494683
3.385000	1.477290
3.386000	1.486631
3.387000	1.515297
3.388000	1.540421
3.389000	1.581004
3.390000	1.647678
3.391000	1.686329
3.392000	1.679565
3.393000	1.673124
3.394000	1.642525
3.395000	1.605162
3.396000	1.574240
3.397000	1.562645
3.398000	1.561035
3.399000	1.555237
3.400000	1.557492
3.401000	1.564900
3.402000	1.565222
3.403000	1.567799
3.404000	1.568121
3.405000	1.563933
3.406000	1.549439
3.407000	1.525604
3.408000	1.525282
3.409000	1.552338
3.410000	1.589379
3.411000	1.601296
3.412000	1.594855
3.413000	1.584870
3.414000	1.570697
3.415000	1.565866
3.416000	1.562645
3.417000	1.568121
3.418000	1.596143
3.419000	1.608060
3.420000	1.617723
3.421000	1.614180
3.422000	1.611281
3.423000	1.596787
3.424000	1.569409
3.425000	1.567154
3.426000	1.573918
3.427000	1.573918
3.428000	1.570053
3.429000	1.582615
3.430000	1.574563
3.431000	1.559746
3.432000	1.555881
3.433000	1.541065
3.434000	1.538810
3.435000	1.556203
3.436000	1.566188
3.437000	1.590667
3.438000	1.633828
3.439000	1.645745
3.440000	1.625131
3.441000	1.582937
3.442000	1.559424
3.443000	1.559746
3.444000	1.559424
3.445000	1.561357
3.446000	1.573918
3.447000	1.597753
3.448000	1.609349
3.449000	1.624487
3.450000	1.608060
3.451000	1.609993
3.452000	1.580682
3.453000	1.564256
3.454000	1.556525
3.455000	1.554915
3.456000	1.552982
3.457000	1.561035
3.458000	1.575851
3.459000	1.605162
3.460000	1.618690
3.461000	1.626742
3.462000	1.622555
3.463000	1.612892
3.464000	1.585836
3.465000	1.509177
3.466000	1.442182
3.467000	1.392901
3.468000	1.391613
3.469000	1.413837
3.470000	1.484376
3.471000	1.571664
3.472000	1.644779
3.473000	1.632218
3.474000	1.648644
3.475000	1.668292
3.476000	1.658629
3.477000	1.651543
3.478000	1.639626
3.479000	1.628997
3.480000	1.632862
3.481000	1.630929
3.482000	1.621266
3.483000	1.613536
3.484000	1.615791
3.485000	1.611281
3.486000	1.613536
3.487000	1.619012
3.488000	1.618045
3.489000	1.615147
3.490000	1.616757
3.491000	1.600330
3.492000	1.581327
3.493000	1.569731
3.494000	1.562645
3.495000	1.562645
3.496000	1.574885
3.497000	1.592922
3.498000	1.596465
3.499000	1.591312
3.500000	1.586480
3.501000	1.594210
3.502000	1.594532
3.503000	1.597431
3.504000	1.610315
3.505000	1.606128
3.506000	1.585514
3.507000	1.570375
3.508000	1.560068
3.509000	1.560390
3.510000	1.554915
3.511000	1.545896
3.512000	1.521417
3.513000	1.504668
3.514000	1.498548
3.515000	1.500481
3.516000	1.518840
3.517000	1.538488
3.518000	1.570053
3.519000	1.603551
3.520000	1.613858
3.521000	1.624487
3.522000	1.623521
3.523000	1.620300
3.524000	1.614502
3.525000	1.606450
3.526000	1.606450
3.527000	1.566832
3.528000	1.513687
3.529000	1.478901
3.530000	1.456354
3.531000	1.448302
3.532000	1.474391
3.533000	1.519807
3.534000	1.567477
3.535000	1.606450
3.536000	1.640270
3.537000	1.655086
3.538000	1.684397
3.539000	1.709198
3.540000	1.691161
3.541000	1.669258
3.542000	1.646068
3.543000	1.633506
3.544000	1.618367
3.545000	1.613536
3.546000	1.600330
3.547000	1.591312
3.548000	1.581649
3.549000	1.579394
3.550000	1.574885
3.551000	1.576173
3.552000	1.575529
3.553000	1.575529
3.554000	1.577784
3.555000	1.582937
3.556000	1.583259
3.557000	1.585836
3.558000	1.579072
3.559000	1.557492
3.560000	1.529469
3.561000	1.497582
3.562000	1.473747
3.563000	1.474069
3.564000	1.483088
3.565000	1.516263
3.566000	1.575529
3.567000	1.622877
3.568000	1.652187
3.569000	1.654764
3.570000	1.650899
3.571000	1.641236
3.572000	1.627708
3.573000	1.598720
3.574000	1.561035
3.575000	1.529147
3.576000	1.506923
3.577000	1.504668
3.578000	1.512720
3.579000	1.524638
3.580000	1.540743
3.581000	1.558136
3.582000	1.540743
3.583000	1.529791
3.584000	1.538488
3.585000	1.536233
3.586000	1.529469
3.587000	1.531080
3.588000	1.574240
3.589000	1.603551
3.590000	1.635116
3.591000	1.653798
3.592000	1.675378
3.593000	1.693738
3.594000	1.689228
3.595000	1.691161
3.596000	1.683753
3.597000	1.656697
3.598000	1.631573
3.599000	1.612570
3.600000	1.584548
3.601000	1.553304
3.602000	1.546540
3.603000	1.546218
3.604000	1.544930
3.605000	1.545574
3.606000	1.585192
3.607000	1.616757
3.608000	1.628674
3.609000	1.628997
3.610000	1.626742
3.611000	1.626420
3.612000	1.616757
3.613000	1.600008
3.614000	1.581971
3.615000	1.569409
3.616000	1.539454
3.617000	1.517552
3.618000	1.514653
3.619000	1.510788
3.620000	1.533657
3.621000	1.554915
3.622000	1.585192
3.623000	1.625131
3.624000	1.650255
3.625000	1.662172
3.626000	1.652509
3.627000	1.647356
3.628000	1.616435
3.629000	1.589057
3.630000	1.579072
3.631000	1.568765
3.632000	1.560068
3.633000	1.564256
3.634000	1.574240
3.635000	1.579394
3.636000	1.583581
3.637000	1.597753
3.638000	1.598398
3.639000	1.600652
3.640000	1.589701
3.641000	1.565222
3.642000	1.545574
3.643000	1.538810
3.644000	1.556203
3.645000	1.568443
3.646000	1.574563
3.647000	1.577784
3.648000	1.589379
3.649000	1.581649
3.650000	1.548151
3.651000	1.532368
3.652000	1.536555
3.653000	1.541709
3.654000	1.556203
3.655000	1.567477
3.656000	1.571020
3.657000	1.567154
3.658000	1.550083
3.659000	1.528503
3.660000	1.522705
3.661000	1.525926
3.662000	1.544286
3.663000	1.542031
3.664000	1.532690
3.665000	1.532368
3.666000	1.527859
3.667000	1.543642
3.668000	1.571986
3.669000	1.568443
3.670000	1.540098
3.671000	1.529469
3.672000	1.538166
3.673000	1.574885
3.674000	1.631895
3.675000	1.676667
3.676000	1.740763
3.677000	1.750104
3.678000	1.723048
3.679000	1.682464
3.680000	1.643813
3.681000	1.608383
3.682000	1.578428
3.683000	1.561035
3.684000	1.563611
3.685000	1.570053
3.686000	1.575207
3.687000	1.586158
3.688000	1.590023
3.689000	1.598075
3.690000	1.601941
3.691000	1.607738
3.692000	1.605484
3.693000	1.601619
3.694000	1.553626
3.695000	1.508533
3.696000	1.446047
3.697000	1.403853
3.698000	1.389036
3.699000	1.400309
3.700000	1.434129
3.701000	1.484054
3.702000	1.556525
3.703000	1.622555
3.704000	1.660884
3.705000	1.698247
3.706000	1.708554
3.707000	1.700502
3.708000	1.684719
3.709000	1.676989
3.710000	1.663461
3.711000	1.642202
3.712000	1.603229
3.713000	1.584548
3.714000	1.580360
3.715000	1.572308
3.716000	1.569731
3.717000	1.581971
3.718000	1.596143
3.719000	1.615469
3.720000	1.629641
3.721000	1.630607
3.722000	1.621910
3.723000	1.608705
3.724000	1.588735
3.725000	1.586802
3.726000	1.576495
3.727000	1.574240
3.728000	1.570375
3.729000	1.567477
3.730000	1.582293
3.731000	1.574563
3.732000	1.559424
3.733000	1.548473
3.734000	1.551372
3.735000	1.573596
3.736000	1.586802
3.737000	1.606450
3.738000	1.625454
3.739000	1.634794
3.740000	1.642847
3.741000	1.649933
3.742000	1.586802
3.743000	1.523350
3.744000	1.490174
3.745000	1.478578
3.746000	1.492428
3.747000	1.524960
3.748000	1.563289
3.749000	1.597431
3.750000	1.600974
3.751000	1.596787
3.752000	1.575207
3.753000	1.558136
3.754000	1.534623
3.755000	1.517874
3.756000	1.494683
3.757000	1.486309
3.758000	1.500803
3.759000	1.519484
3.760000	1.560068
3.761000	1.619656
3.762000	1.639948
3.763000	1.652509
3.764000	1.666037
3.765000	1.685041
3.766000	1.682464
3.767000	1.671513
3.768000	1.653476
3.769000	1.634150
3.770000	1.615147
3.771000	1.603229
3.772000	1.592278
3.773000	1.584225
3.774000	1.568765
3.775000	1.560068
3.776000	1.548795
3.777000	1.550083
3.778000	1.546862
3.779000	1.547185
3.780000	1.559102
3.781000	1.583581
3.782000	1.601296
3.783000	1.608383
3.784000	1.600330
3.785000	1.603551
3.786000	1.614180
3.787000	1.594210
3.788000	1.555559
3.789000	1.528825
3.790000	1.516908
3.791000	1.534623
3.792000	1.553949
3.793000	1.574563
3.794000	1.567477
3.795000	1.554271
3.796000	1.503058
3.797000	1.455388
3.798000	1.424467
3.799000	1.436384
3.800000	1.469882
3.801000	1.491462
3.802000	1.543319
3.803000	1.623199
3.804000	1.657663
3.805000	1.674412
3.806000	1.680210
3.807000	1.707266
3.808000	1.718217
3.809000	1.696314
3.810000	1.686007
3.811000	1.663783
3.812000	1.648322
3.813000	1.631251
3.814000	1.617079
3.815000	1.613858
3.816000	1.598720
3.817000	1.605162
3.818000	1.624809
3.819000	1.603229
3.820000	1.588413
3.821000	1.586480
3.822000	1.590345
3.823000	1.588735
3.824000	1.593244
3.825000	1.589057
3.826000	1.575529
3.827000	1.556847
3.828000	1.513043
3.829000	1.481477
3.830000	1.463762
3.831000	1.462152
3.832000	1.483088
3.833000	1.515297
3.834000	1.550406
3.835000	1.593888
3.836000	1.611926
3.837000	1.586802
3.838000	1.558780
3.839000	1.548151
3.840000	1.562323
3.841000	1.578106
3.842000	1.606128
3.843000	1.617723
3.844000	1.615147
3.845000	1.612570
3.846000	1.601296
3.847000	1.578428
3.848000	1.570375
3.849000	1.577784
3.850000	1.587446
3.851000	1.596143
3.852000	1.608383
3.853000	1.626098
3.854000	1.614824
3.855000	1.594532
3.856000	1.565866
3.857000	1.538810
3.858000	1.516586
3.859000	1.512720
3.860000	1.540743
3.861000	1.575851
3.862000	1.585514
3.863000	1.574885
3.864000	1.581971
3.865000	1.589701
3.866000	1.588413
3.867000	1.596465
3.868000	1.612570
3.869000	1.639948
3.870000	1.665715
3.871000	1.672801
3.872000	1.672801
3.873000	1.668614
3.874000	1.645745
3.875000	1.626742
3.876000	1.618367
3.877000	1.606128
3.878000	1.603229
3.879000	1.604195
3.880000	1.584870
3.881000	1.556203
3.882000	1.545252
3.883000	1.539454
3.884000	1.514653
3.885000	1.462152
3.886000	1.428332
3.887000	1.418025
3.888000	1.432519
3.889000	1.470848
3.890000	1.514975
3.891000	1.568121
3.892000	1.626742
3.893000	1.645101
3.894000	1.620300
3.895000	1.591634
3.896000	1.571020
3.897000	1.547829
3.898000	1.545252
3.899000	1.566510
3.900000	1.608705
3.901000	1.654120
3.902000	1.647356
3.903000	1.635761
3.904000	1.637371
3.905000	1.646712
3.906000	1.646712
3.907000	1.657019
3.908000	1.662172
3.909000	1.656375
3.910000	1.638337
3.911000	1.617723
3.912000	1.590023
3.913000	1.570697
3.914000	1.561679
3.915000	1.561679
3.916000	1.566188
3.917000	1.573918
3.918000	1.562323
3.919000	1.554593
3.920000	1.562001
3.921000	1.562001
3.922000	1.562645
3.923000	1.556203
3.924000	1.553304
3.925000	1.559746
3.926000	1.565866
3.927000	1.568765
3.928000	1.570053
3.929000	1.582615
3.930000	1.599364
3.931000	1.600974
3.932000	1.593244
3.933000	1.573596
3.934000	1.560713
3.935000	1.551372
3.936000	1.529469
3.937000	1.490818
3.938000	1.464406
3.939000	1.458609
3.940000	1.459897
3.941000	1.475357
3.942000	1.512720
3.943000	1.548151
3.944000	1.612248
3.945000	1.677311
3.946000	1.708232
3.947000	1.692127
3.948000	1.665393
3.949000	1.661850
3.950000	1.651543
3.951000	1.641236
3.952000	1.631573
3.953000	1.624165
3.954000	1.629319
3.955000	1.627708
3.956000	1.626098
3.957000	1.625776
3.958000	1.611281
3.959000	1.561357
3.960000	1.500159
3.961000	1.438317
3.962000	1.390325
3.963000	1.384205
3.964000	1.401276
3.965000	1.447657
3.966000	1.516263
3.967000	1.611603
3.968000	1.652832
3.969000	1.643169
3.970000	1.624165
3.971000	1.630607
3.972000	1.669258
3.973000	1.660240
3.974000	1.628352
3.975000	1.594210
3.976000	1.566188
3.977000	1.553949
3.978000	1.543964
3.979000	1.534945
3.980000	1.537844
3.981000	1.564900
3.982000	1.590667
3.983000	1.613536
3.984000	1.622233
3.985000	1.629319
3.986000	1.652509
3.987000	1.674090
3.988000	1.667970
3.989000	1.661206
3.990000	1.657341
3.991000	1.651221
3.992000	1.632862
3.993000	1.634472
3.994000	1.622555
3.995000	1.607738
3.996000	1.579072
3.997000	1.551694
3.998000	1.536878
3.999000	1.534301
4.000000	1.527215
4.001000	1.540421
4.002000	1.547829
4.003000	1.566832
4.004000	1.572630
4.005000	1.578428
4.006000	1.598075
4.007000	1.599686
4.008000	1.592278
4.009000	1.603873
4.010000	1.612248
4.011000	1.619334
4.012000	1.613536
4.013000	1.604839
4.014000	1.569409
4.015000	1.546540
4.016000	1.539776
4.017000	1.545574
4.018000	1.566510
4.019000	1.576173
4.020000	1.582293
4.021000	1.589057
4.022000	1.615791
4.023000	1.626420
4.024000	1.616435
4.025000	1.603551
4.026000	1.588091
4.027000	1.565222
4.028000	1.542353
4.029000	1.504024
4.030000	1.443792
4.031000	1.406107
4.032000	1.405785
4.033000	1.428976
4.034000	1.472137
4.035000	1.523672
4.036000	1.597753
4.037000	1.668614
4.038000	1.676667
4.039000	1.696959
4.040000	1.724981
4.041000	1.726269
4.042000	1.707910
4.043000	1.667970
4.044000	1.620300
4.045000	1.599686
4.046000	1.579072
4.047000	1.563289
4.048000	1.551050
4.049000	1.540743
4.050000	1.524316
4.051000	1.515619
4.052000	1.525926
4.053000	1.541709
4.054000	1.564578
4.055000	1.571664
4.056000	1.542675
4.057000	1.488563
4.058000	1.462796
4.059000	1.448946
4.060000	1.468593
4.061000	1.497582
4.062000	1.527537
4.063000	1.588413
4.064000	1.678277
4.065000	1.725303
4.066000	1.723048
4.067000	1.709198
4.068000	1.697281
4.069000	1.687618
4.070000	1.668292
4.071000	1.650899
4.072000	1.635116
4.073000	1.619334
4.074000	1.583581
4.075000	1.533657
4.076000	1.489852
4.077000	1.467949
4.078000	1.455066
4.079000	1.456354
4.080000	1.472459
4.081000	1.507567
4.082000	1.572308
4.083000	1.610637
4.084000	1.625454
4.085000	1.654442
4.086000	1.689550
4.087000	1.722082
4.088000	1.729812
4.089000	1.721760
4.090000	1.705655
4.091000	1.662494
4.092000	1.605484
4.093000	1.555559
4.094000	1.533979
4.095000	1.538166
4.096000	1.548795
4.097000	1.560068
4.098000	1.568765
4.099000	1.583903
4.100000	1.579716
4.101000	1.576817
4.102000	1.570697
4.103000	1.566832
4.104000	1.557492
4.105000	1.543964
4.106000	1.527537
4.107000	1.514009
4.108000	1.513687
4.109000	1.525604
4.110000	1.525604
4.111000	1.541065
4.112000	1.560713
4.113000	1.593888
4.114000	1.592278
4.115000	1.609027
4.116000	1.616757
4.117000	1.606128
4.118000	1.583259
4.119000	1.567477
4.120000	1.570697
4.121000	1.587446
4.122000	1.620944
4.123000	1.643491
4.124000	1.644135
4.125000	1.639304
4.126000	1.623199
4.127000	1.609671
4.128000	1.586158
4.129000	1.534301
4.130000	1.489530
4.131000	1.469882
4.132000	1.469238
4.133000	1.489530
4.134000	1.518518
4.135000	1.558136
4.136000	1.605484
4.137000	1.627064
4.138000	1.630607
4.139000	1.627064
4.140000	1.642525
4.141000	1.632540
4.142000	1.614180
4.143000	1.588413
4.144000	1.579072
4.145000	1.562323
4.146000	1.566832
4.147000	1.581327
4.148000	1.589701
4.149000	1.593244
4.150000	1.605806
4.151000	1.608705
4.152000	1.608383
4.153000	1.599686
4.154000	1.557169
4.155000	1.513687
4.156000	1.488241
4.157000	1.504990
4.158000	1.549117
4.159000	1.581004
4.160000	1.594855
4.161000	1.616435
4.162000	1.645101
4.163000	1.648966
4.164000	1.625131
4.165000	1.632540
4.166000	1.627386
4.167000	1.587124
4.168000	1.558136
4.169000	1.548151
4.170000	1.553949
4.171000	1.562001
4.172000	1.547507
4.173000	1.522705
4.174000	1.515619
4.175000	1.523350
4.176000	1.535589
4.177000	1.571020
4.178000	1.609349
4.179000	1.636405
4.180000	1.647678
4.181000	1.638337
4.182000	1.638337
4.183000	1.644779
4.184000	1.639948
4.185000	1.629963
4.186000	1.618367
4.187000	1.587446
4.188000	1.568121
4.189000	1.561679
4.190000	1.547507
4.191000	1.537522
4.192000	1.532368
4.193000	1.528181
4.194000	1.534623
4.195000	1.540421
4.196000	1.554593
4.197000	1.563933
4.198000	1.567477
4.199000	1.570053
4.200000	1.568121
4.201000	1.574240
4.202000	1.589701
4.203000	1.588413
4.204000	1.582615
4.205000	1.589379
4.206000	1.573274
4.207000	1.556203
4.208000	1.548151
4.209000	1.525926
4.210000	1.491462
4.211000	1.446369
4.212000	1.436062
4.213000	1.463762
4.214000	1.475035
4.215000	1.502736
4.216000	1.566832
4.217000	1.638659
4.218000	1.688906
4.219000	1.711131
4.220000	1.686651
4.221000	1.678277
4.222000	1.680532
4.223000	1.656697
4.224000	1.642525
4.225000	1.624809
4.226000	1.605484
4.227000	1.600330
4.228000	1.591956
4.229000	1.580360
4.230000	1.586480
4.231000	1.584870
4.232000	1.576495
4.233000	1.559746
4.234000	1.550406
4.235000	1.562001
4.236000	1.575851
4.237000	1.585192
4.238000	1.586802
4.239000	1.586802
4.240000	1.576817
4.241000	1.562967
4.242000	1.543642
4.243000	1.566188
4.244000	1.595499
4.245000	1.601619
4.246000	1.592600
4.247000	1.587446
4.248000	1.589057
4.249000	1.584548
4.250000	1.582937
4.251000	1.573918
4.252000	1.571986
4.253000	1.590023
4.254000	1.611281
4.255000	1.626098
4.256000	1.641558
4.257000	1.644779
4.258000	1.616757
4.259000	1.598398
4.260000	1.586158
4.261000	1.554915
4.262000	1.534623
4.263000	1.521417
4.264000	1.526248
4.265000	1.540743
4.266000	1.556203
4.267000	1.573596
4.268000	1.585192
4.269000	1.577784
4.270000	1.563611
4.271000	1.543642
4.272000	1.516586
4.273000	1.496294
4.274000	1.498870
4.275000	1.521739
4.276000	1.548473
4.277000	1.593244
4.278000	1.637049
4.279000	1.666682
4.280000	1.663461
4.281000	1.670869
4.282000	1.647356
4.283000	1.613858
4.284000	1.600008
4.285000	1.581327
4.286000	1.567154
4.287000	1.562645
4.288000	1.554271
4.289000	1.544286
4.290000	1.538166
4.291000	1.538810
4.292000	1.541065
4.293000	1.554271
4.294000	1.565544
4.295000	1.566510
4.296000	1.557492
4.297000	1.546862
4.298000	1.570053
4.299000	1.612570
4.300000	1.621588
4.301000	1.639304
4.302000	1.649933
4.303000	1.659273
4.304000	1.652187
4.305000	1.639626
4.306000	1.625454
4.307000	1.610315
4.308000	1.610315
4.309000	1.613214
4.310000	1.598720
4.311000	1.582615
4.312000	1.558780
4.313000	1.552982
4.314000	1.549761
4.315000	1.552338
4.316000	1.552016
4.317000	1.543964
4.318000	1.543964
4.319000	1.568121
4.320000	1.590667
4.321000	1.588413
4.322000	1.590345
4.323000	1.581971
4.324000	1.560390
4.325000	1.525282
4.326000	1.524638
4.327000	1.522061
4.328000	1.532046
4.329000	1.558458
4.330000	1.592278
4.331000	1.613858
4.332000	1.610315
4.333000	1.600008
4.334000	1.586480
4.335000	1.574563
4.336000	1.580038
4.337000	1.597109
4.338000	1.625776
4.339000	1.643813
4.340000	1.637049
4.341000	1.613214
4.342000	1.591312
4.343000	1.584225
4.344000	1.598075
4.345000	1.604195
4.346000	1.567154
4.347000	1.566188
4.348000	1.578428
4.349000	1.573596
4.350000	1.584870
4.351000	1.586158
4.352000	1.553626
4.353000	1.518840
4.354000	1.506601
4.355000	1.510788
4.356000	1.512076
4.357000	1.525926
4.358000	1.565866
4.359000	1.615147
4.360000	1.649933
4.361000	1.644135
4.362000	1.644135
4.363000	1.636083
4.364000	1.619978
4.365000	1.612570
4.366000	1.610637
4.367000	1.604195
4.368000	1.600008
4.369000	1.593566
4.370000	1.589057
4.371000	1.586802
4.372000	1.588735
4.373000	1.597431
4.374000	1.597431
4.375000	1.601619
4.376000	1.593244
4.377000	1.566510
4.378000	1.542675
4.379000	1.527215
4.380000	1.522061
4.381000	1.520773
4.382000	1.521739
4.383000	1.534301
4.384000	1.561357
4.385000	1.586480
4.386000	1.604517
4.387000	1.619334
4.388000	1.610315
4.389000	1.604517
4.390000	1.595177
4.391000	1.575851
4.392000	1.552338
4.393000	1.515297
4.394000	1.493395
4.395000	1.494361
4.396000	1.516263
4.397000	1.553304
4.398000	1.594210
4.399000	1.631573
4.400000	1.661528
4.401000	1.670869
4.402000	1.669258
4.403000	1.639304
4.404000	1.608705
4.405000	1.594210
4.406000	1.584225
4.407000	1.580360
4.408000	1.578106
4.409000	1.580682
4.410000	1.594210
4.411000	1.599042
4.412000	1.589701
4.413000	1.580682
4.414000	1.564578
4.415000	1.542353
4.416000	1.484698
4.417000	1.446369
4.418000	1.425111
4.419000	1.429298
4.420000	1.421890
4.421000	1.436384
4.422000	1.459575
4.423000	1.507567
4.424000	1.549761
4.425000	1.586158
4.426000	1.625454
4.427000	1.679565
4.428000	1.715640
4.429000	1.716284
4.430000	1.717573
4.431000	1.704689
4.432000	1.690839
4.433000	1.674734
4.434000	1.661850
4.435000	1.655086
4.436000	1.647678
4.437000	1.641880
4.438000	1.632862
4.439000	1.605806
4.440000	1.542997
4.441000	1.483732
4.442000	1.446047
4.443000	1.425111
4.444000	1.437995
4.445000	1.464406
4.446000	1.530114
4.447000	1.613536
4.448000	1.662494
4.449000	1.674734
4.450000	1.676667
4.451000	1.668614
4.452000	1.652509
4.453000	1.627708
4.454000	1.627064
4.455000	1.609349
4.456000	1.589057
4.457000	1.577461
4.458000	1.572630
4.459000	1.577139
4.460000	1.571664
4.461000	1.575529
4.462000	1.580038
4.463000	1.584870
4.464000	1.590989
4.465000	1.597753
4.466000	1.574563
4.467000	1.545896
4.468000	1.529469
4.469000	1.528503
4.470000	1.531402
4.471000	1.557814
4.472000	1.594210
4.473000	1.641880
4.474000	1.656053
4.475000	1.639948
4.476000	1.612892
4.477000	1.585514
4.478000	1.557492
4.479000	1.533979
4.480000	1.499515
4.481000	1.478256
4.482000	1.515297
4.483000	1.539132
4.484000	1.557169
4.485000	1.571986
4.486000	1.587446
4.487000	1.628030
4.488000	1.665715
4.489000	1.650577
4.490000	1.613536
4.491000	1.596787
4.492000	1.587446
4.493000	1.578428
4.494000	1.575851
4.495000	1.572308
4.496000	1.570053
4.497000	1.584870
4.498000	1.590667
4.499000	1.614180
4.500000	1.610959
4.501000	1.600008
4.502000	1.591634
4.503000	1.581004
4.504000	1.580360
4.505000	1.578428
4.506000	1.575207
4.507000	1.570375
4.508000	1.573596
4.509000	1.577784
4.510000	1.589057
4.511000	1.597753
4.512000	1.588091
4.513000	1.578750
4.514000	1.570697
4.515000	1.562967
4.516000	1.542675
4.517000	1.532046
4.518000	1.534945
4.519000	1.534623
4.520000	1.514653
4.521000	1.502091
4.522000	1.510788
4.523000	1.484376
4.524000	1.463762
4.525000	1.456998
4.526000	1.466983
4.527000	1.498226
4.528000	1.549439
4.529000	1.605484
4.530000	1.639626
4.531000	1.629963
4.532000	1.597431
4.533000	1.573274
4.534000	1.553626
4.535000	1.564900
4.536000	1.567154
4.537000	1.583259
4.538000	1.600008
4.539000	1.599364
4.540000	1.611603
4.541000	1.643813
4.542000	1.693093
4.543000	1.706299
4.544000	1.689550
4.545000	1.667970
4.546000	1.664427
4.547000	1.676667
4.548000	1.664749
4.549000	1.640914
4.550000	1.608060
4.551000	1.600974
4.552000	1.605484
4.553000	1.600652
4.554000	1.571020
4.555000	1.566188
4.556000	1.562323
4.557000	1.515941
4.558000	1.468271
4.559000	1.463762
4.560000	1.459253
4.561000	1.463762
4.562000	1.468271
4.563000	1.485342
4.564000	1.540421
4.565000	1.593244
4.566000	1.628674
4.567000	1.645745
4.568000	1.618690
4.569000	1.596465
4.570000	1.581649
4.571000	1.570697
4.572000	1.576817
4.573000	1.594532
4.574000	1.612892
4.575000	1.642202
4.576000	1.651221
4.577000	1.618045
4.578000	1.572630
4.579000	1.539454
4.580000	1.517230
4.581000	1.505312
4.582000	1.497904
4.583000	1.505956
4.584000	1.522383
4.585000	1.531724
4.586000	1.568443
4.587000	1.606450
4.588000	1.619012
4.589000	1.615469
4.590000	1.631895
4.591000	1.672801
4.592000	1.672801
4.593000	1.657985
4.594000	1.621910
4.595000	1.557814
4.596000	1.523027
4.597000	1.518840
4.598000	1.539132
4.599000	1.567799
4.600000	1.604517
4.601000	1.657019
4.602000	1.704045
4.603000	1.690195
4.604000	1.664105
4.605000	1.636405
4.606000	1.610959
4.607000	1.576173
4.608000	1.544286
4.609000	1.530114
4.610000	1.548473
4.611000	1.538166
4.612000	1.519162
4.613000	1.516263
4.614000	1.519807
4.615000	1.529147
4.616000	1.534945
4.617000	1.569409
4.618000	1.606772
4.619000	1.623199
4.620000	1.640270
4.621000	1.642525
4.622000	1.636083
4.623000	1.629963
4.624000	1.621266
4.625000	1.630607
4.626000	1.612248
4.627000	1.598720
4.628000	1.588091
4.629000	1.573274
4.630000	1.532368
4.631000	1.488885
4.632000	1.462152
4.633000	1.448946
4.634000	1.445081
4.635000	1.447335
4.636000	1.474713
4.637000	1.497582
4.638000	1.499515
4.639000	1.542353
4.640000	1.601941
4.641000	1.611603
4.642000	1.573918
4.643000	1.539132
4.644000	1.550083
4.645000	1.597431
4.646000	1.621266
4.647000	1.660884
4.648000	1.692771
4.649000	1.702434
4.650000	1.699535
4.651000	1.689872
4.652000	1.667648
4.653000	1.653798
4.654000	1.635438
4.655000	1.633506
4.656000	1.626098
4.657000	1.620300
4.658000	1.624809
4.659000	1.609349
4.660000	1.585836
4.661000	1.574563
4.662000	1.569731
4.663000	1.567477
4.664000	1.553304
4.665000	1.526248
4.666000	1.489530
4.667000	1.482121
4.668000	1.481799
4.669000	1.482444
4.670000	1.482444
4.671000	1.485665
4.672000	1.515619
4.673000	1.552982
4.674000	1.575851
4.675000	1.619334
4.676000	1.654120
4.677000	1.676344
4.678000	1.669258
4.679000	1.651543
4.680000	1.632218
4.681000	1.619334
4.682000	1.610637
4.683000	1.591312
4.684000	1.591634
4.685000	1.579716
4.686000	1.576173
4.687000	1.571664
4.688000	1.583903
4.689000	1.598075
4.690000	1.605806
4.691000	1.600974
4.692000	1.580038
4.693000	1.579072
4.694000	1.571986
4.695000	1.562645
4.696000	1.545252
4.697000	1.523672
4.698000	1.504346
4.699000	1.496616
4.700000	1.522061
4.701000	1.554271
4.702000	1.587446
4.703000	1.624809
4.704000	1.651865
4.705000	1.635438
4.706000	1.632218
4.707000	1.630285
4.708000	1.603551
4.709000	1.562323
4.710000	1.531724
4.711000	1.505312
4.712000	1.492751
4.713000	1.501125
4.714000	1.512398
4.715000	1.525604
4.716000	1.574563
4.717000	1.591956
4.718000	1.634472
4.719000	1.668292
4.720000	1.662816
4.721000	1.635116
4.722000	1.634794
4.723000	1.631573
4.724000	1.619978
4.725000	1.587446
4.726000	1.560068
4.727000	1.544930
4.728000	1.541387
4.729000	1.547507
4.730000	1.537844
4.731000	1.521095
4.732000	1.523350
4.733000	1.531724
4.734000	1.523672
4.735000	1.528181
4.736000	1.563933
4.737000	1.563933
4.738000	1.564900
4.739000	1.574563
4.740000	1.585192
4.741000	1.605162
4.742000	1.616113
4.743000	1.646068
4.744000	1.676022
4.745000	1.671835
4.746000	1.649611
4.747000	1.620622
4.748000	1.614180
4.749000	1.598398
4.750000	1.576495
4.751000	1.574240
4.752000	1.574885
4.753000	1.582937
4.754000	1.590989
4.755000	1.592600
4.756000	1.598720
4.757000	1.582293
4.758000	1.561035
4.759000	1.535267
4.760000	1.516908
4.761000	1.503058
4.762000	1.466983
4.763000	1.444759
4.764000	1.453777
4.765000	1.472781
4.766000	1.499837
4.767000	1.549761
4.768000	1.600652
4.769000	1.628674
4.770000	1.663139
4.771000	1.665071
4.772000	1.664105
4.773000	1.619978
4.774000	1.584870
4.775000	1.573596
4.776000	1.569087
4.777000	1.586480
4.778000	1.595821
4.779000	1.607738
4.780000	1.636727
4.781000	1.640592
4.782000	1.638337
4.783000	1.631251
4.784000	1.624165
4.785000	1.615469
4.786000	1.609027
4.787000	1.603229
4.788000	1.602263
4.789000	1.571664
4.790000	1.534301
4.791000	1.512720
4.792000	1.509822
4.793000	1.518518
4.794000	1.560713
4.795000	1.599686
4.796000	1.570375
4.797000	1.527537
4.798000	1.491462
4.799000	1.469560
4.800000	1.477290
4.801000	1.530436
4.802000	1.571020
4.803000	1.611603
4.804000	1.658307
4.805000	1.690195
4.806000	1.682142
4.807000	1.667648
4.808000	1.646390
4.809000	1.630929
4.810000	1.615791
4.811000	1.605806
4.812000	1.594532
4.813000	1.589057
4.814000	1.574563
4.815000	1.559424
4.816000	1.534945
4.817000	1.523350
4.818000	1.523350
4.819000	1.529147
4.820000	1.522061
4.821000	1.529791
4.822000	1.557169
4.823000	1.600974
4.824000	1.620944
4.825000	1.611603
4.826000	1.593244
4.827000	1.590345
4.828000	1.587446
4.829000	1.586158
4.830000	1.582937
4.831000	1.597431
4.832000	1.617723
4.833000	1.635438
4.834000	1.621910
4.835000	1.604517
4.836000	1.592922
4.837000	1.580682
4.838000	1.571986
4.839000	1.576495
4.840000	1.574563
4.841000	1.567154
4.842000	1.554593
4.843000	1.554915
4.844000	1.562967
4.845000	1.567477
4.846000	1.554271
4.847000	1.546540
4.848000	1.539776
4.849000	1.519807
4.850000	1.504024
4.851000	1.517230
4.852000	1.554915
4.853000	1.605806
4.854000	1.646390
4.855000	1.667326
4.856000	1.657019
4.857000	1.636727
4.858000	1.626098
4.859000	1.621910
4.860000	1.607738
4.861000	1.592922
4.862000	1.581971
4.863000	1.556203
4.864000	1.521095
4.865000	1.490174
4.866000	1.496616
4.867000	1.545896
4.868000	1.594855
4.869000	1.602263
4.870000	1.611281
4.871000	1.617723
4.872000	1.611603
4.873000	1.605806
4.874000	1.611603
4.875000	1.619012
4.876000	1.588091
4.877000	1.562645
4.878000	1.537522
4.879000	1.529147
4.880000	1.526571
4.881000	1.527537
4.882000	1.546218
4.883000	1.565544
4.884000	1.595499
4.885000	1.619012
4.886000	1.612248
4.887000	1.571986
4.888000	1.542031
4.889000	1.554915
4.890000	1.565866
4.891000	1.567154
4.892000	1.565544
4.893000	1.596465
4.894000	1.619978
4.895000	1.607094
4.896000	1.581971
4.897000	1.579716
4.898000	1.592922
4.899000	1.601296
4.900000	1.577461
4.901000	1.539776
4.902000	1.514009
4.903000	1.506923
4.904000	1.518196
4.905000	1.549439
4.906000	1.588091
4.907000	1.616435
4.908000	1.639948
4.909000	1.649611
4.910000	1.637371
4.911000	1.607416
4.912000	1.581327
4.913000	1.559746
4.914000	1.567799
4.915000	1.576495
4.916000	1.581649
4.917000	1.566832
4.918000	1.556847
4.919000	1.555881
4.920000	1.574563
4.921000	1.595821
4.922000	1.602263
4.923000	1.613858
4.924000	1.625454
4.925000	1.647356
4.926000	1.659596
4.927000	1.642202
4.928000	1.602907
4.929000	1.585836
4.930000	1.558136
4.931000	1.545896
4.932000	1.528825
4.933000	1.513687
4.934000	1.514331
4.935000	1.520773
4.936000	1.519807
4.937000	1.526571
4.938000	1.533657
4.939000	1.554915
4.940000	1.578750
4.941000	1.603551
4.942000	1.641558
4.943000	1.660562
4.944000	1.649611
4.945000	1.643169
4.946000	1.630285
4.947000	1.611281
4.948000	1.580360
4.949000	1.552338
4.950000	1.541387
4.951000	1.543642
4.952000	1.540743
4.953000	1.555881
4.954000	1.579394
4.955000	1.601941
4.956000	1.629963
4.957000	1.629641
4.958000	1.604517
4.959000	1.599686
4.960000	1.592600
4.961000	1.583903
4.962000	1.584548
4.963000	1.577784
4.964000	1.581004
4.965000	1.574885
4.966000	1.577461
4.967000	1.571664
4.968000	1.568121
4.969000	1.549117
4.970000	1.523350
4.971000	1.475357
4.972000	1.420279
4.973000	1.406751
4.974000	1.424144
4.975000	1.473425
4.976000	1.543642
4.977000	1.614824
4.978000	1.702112
4.979000	1.737220
4.980000	1.723692
4.981000	1.699213
4.982000	1.672479
4.983000	1.646068
4.984000	1.630607
4.985000	1.616757
4.986000	1.591312
4.987000	1.529469
4.988000	1.491462
4.989000	1.477290
4.990000	1.483088
4.991000	1.525926
4.992000	1.564256
4.993000	1.586158
4.994000	1.576817
4.995000	1.588413
4.996000	1.620622
4.997000	1.629319
4.998000	1.629963
4.999000	1.636405
5.000000	1.637693
5.001000	1.638659
5.002000	1.638981
5.003000	1.639304
5.004000	1.628997
5.005000	1.621588
5.006000	1.609993
5.007000	1.601296
5.008000	1.586480
5.009000	1.571664
5.010000	1.527537
5.011000	1.480511
5.012000	1.453455
5.013000	1.415448
5.014000	1.424144
5.015000	1.449590
5.016000	1.495649
5.017000	1.545896
5.018000	1.585514
5.019000	1.620300
5.020000	1.642202
5.021000	1.646068
5.022000	1.642525
5.023000	1.632862
5.024000	1.616435
5.025000	1.575529
5.026000	1.563289
5.027000	1.561035
5.028000	1.566510
5.029000	1.566188
5.030000	1.572308
5.031000	1.609671
5.032000	1.645423
5.033000	1.652509
5.034000	1.618690
5.035000	1.594210
5.036000	1.603873
5.037000	1.609349
5.038000	1.623521
5.039000	1.619656
5.040000	1.622555
5.041000	1.644457
5.042000	1.638337
5.043000	1.621910
5.044000	1.604195
5.045000	1.588413
5.046000	1.581971
5.047000	1.582293
5.048000	1.590345
5.049000	1.587768
5.050000	1.577784
5.051000	1.574563
5.052000	1.580360
5.053000	1.574885
5.054000	1.565866
5.055000	1.568443
5.056000	1.585192
5.057000	1.602585
5.058000	1.611603
5.059000	1.589379
5.060000	1.567477
5.061000	1.557169
5.062000	1.537522
5.063000	1.536555
5.064000	1.527215
5.065000	1.535589
5.066000	1.541065
5.067000	1.561357
5.068000	1.570375
5.069000	1.568765
5.070000	1.563289
5.071000	1.572630
5.072000	1.584225
5.073000	1.586158
5.074000	1.583903
5.075000	1.563611
5.076000	1.555237
5.077000	1.567154
5.078000	1.577139
5.079000	1.572630
5.080000	1.553626
5.081000	1.544608
5.082000	1.554271
5.083000	1.556525
5.084000	1.564578
5.085000	1.564900
5.086000	1.589057
5.087000	1.612570
5.088000	1.605162
5.089000	1.617723
5.090000	1.615469
5.091000	1.611926
5.092000	1.615147
5.093000	1.618367
5.094000	1.612570
5.095000	1.604839
5.096000	1.593888
5.097000	1.582937
5.098000	1.578106
5.099000	1.569087
5.100000	1.553949
5.101000	1.560068
5.102000	1.572308
5.103000	1.583259
5.104000	1.597753
5.105000	1.599364
5.106000	1.599042
5.107000	1.603229
5.108000	1.583259
5.109000	1.528503
5.110000	1.492106
5.111000	1.502413
5.112000	1.514653
5.113000	1.540421
5.114000	1.557492
5.115000	1.583903
5.116000	1.574563
5.117000	1.556203
5.118000	1.533979
5.119000	1.528503
5.120000	1.540421
5.121000	1.540743
5.122000	1.558458
5.123000	1.587768
5.124000	1.608383
5.125000	1.618690
5.126000	1.596143
5.127000	1.572952
5.128000	1.593566
5.129000	1.597753
5.130000	1.581971
5.131000	1.569087
5.132000	1.563289
5.133000	1.555559
5.134000	1.539132
5.135000	1.531724
5.136000	1.542031
5.137000	1.542353
5.138000	1.548151
5.139000	1.567799
5.140000	1.577784
5.141000	1.605162
5.142000	1.627708
5.143000	1.660562
5.144000	1.667648
5.145000	1.667004
5.146000	1.616113
5.147000	1.553304
5.148000	1.537844
5.149000	1.544930
5.150000	1.550083
5.151000	1.562967
5.152000	1.590023
5.153000	1.612892
5.154000	1.626742
5.155000	1.637049
5.156000	1.631251
5.157000	1.609671
5.158000	1.588091
5.159000	1.555881
5.160000	1.533012
5.161000	1.516263
5.162000	1.541065
5.163000	1.576495
5.164000	1.593244
5.165000	1.613536
5.166000	1.648322
5.167000	1.660240
5.168000	1.652187
5.169000	1.645101
5.170000	1.625776
5.171000	1.631573
5.172000	1.628997
5.173000	1.623521
5.174000	1.620944
5.175000	1.611926
5.176000	1.591634
5.177000	1.580360
5.178000	1.582293
5.179000	1.589701
5.180000	1.579716
5.181000	1.574885
5.182000	1.596787
5.183000	1.595821
5.184000	1.603551
5.185000	1.604195
5.186000	1.601296
5.187000	1.595177
5.188000	1.582937
5.189000	1.578750
5.190000	1.582937
5.191000	1.588735
5.192000	1.580360
5.193000	1.568121
5.194000	1.570375
5.195000	1.581971
5.196000	1.581327
5.197000	1.562967
5.198000	1.552660
5.199000	1.548151
5.200000	1.540098
5.201000	1.547185
5.202000	1.557492
5.203000	1.592600
5.204000	1.616435
5.205000	1.604839
5.206000	1.593244
5.207000	1.558780
5.208000	1.536233
5.209000	1.510144
5.210000	1.482121
5.211000	1.460219
5.212000	1.455710
5.213000	1.477612
5.214000	1.501447
5.215000	1.526571
5.216000	1.574563
5.217000	1.636083
5.218000	1.682786
5.219000	1.691161
5.220000	1.681820
5.221000	1.651543
5.222000	1.627708
5.223000	1.599686
5.224000	1.552338
5.225000	1.524638
5.226000	1.515941
5.227000	1.521417
5.228000	1.534301
5.229000	1.545252
5.230000	1.542031
5.231000	1.541709
5.232000	1.562323
5.233000	1.572308
5.234000	1.583903
5.235000	1.543319
5.236000	1.500803
5.237000	1.490496
5.238000	1.485665
5.239000	1.496938
5.240000	1.523994
5.241000	1.531724
5.242000	1.582937
5.243000	1.644135
5.244000	1.659596
5.245000	1.652187
5.246000	1.681176
5.247000	1.696636
5.248000	1.725947
5.249000	1.714030
5.250000	1.697281
5.251000	1.680532
5.252000	1.685685
5.253000	1.690195
5.254000	1.682464
5.255000	1.668292
5.256000	1.641236
5.257000	1.612570
5.258000	1.609671
5.259000	1.603229
5.260000	1.597109
5.261000	1.579716
5.262000	1.573918
5.263000	1.570053
5.264000	1.564578
5.265000	1.553949
5.266000	1.517874
5.267000	1.484698
5.268000	1.468593
5.269000	1.476646
5.270000	1.504668
5.271000	1.537844
5.272000	1.566188
5.273000	1.572630
5.274000	1.586480
5.275000	1.600008
5.276000	1.603229
5.277000	1.600330
5.278000	1.600008
5.279000	1.584870
5.280000	1.575529
5.281000	1.561357
5.282000	1.566188
5.283000	1.581327
5.284000	1.618045
5.285000	1.626420
5.286000	1.628030
5.287000	1.620622
5.288000	1.616435
5.289000	1.609993
5.290000	1.600652
5.291000	1.599364
5.292000	1.597109
5.293000	1.589379
5.294000	1.581004
5.295000	1.571664
5.296000	1.571020
5.297000	1.571986
5.298000	1.576173
5.299000	1.573274
5.300000	1.559102
5.301000	1.527859
5.302000	1.507245
5.303000	1.489852
5.304000	1.456354
5.305000	1.442504
5.306000	1.475035
5.307000	1.525282
5.308000	1.592600
5.309000	1.630607
5.310000	1.646390
5.311000	1.638659
5.312000	1.633828
5.313000	1.653476
5.314000	1.625454
5.315000	1.593888
5.316000	1.560390
5.317000	1.505956
5.318000	1.464084
5.319000	1.456354
5.320000	1.471814
5.321000	1.507889
5.322000	1.552338
5.323000	1.597109
5.324000	1.639948
5.325000	1.658307
5.326000	1.660884
5.327000	1.677311
5.328000	1.676022
5.329000	1.649611
5.330000	1.615791
5.331000	1.596143
5.332000	1.578106
5.333000	1.552016
5.334000	1.547829
5.335000	1.555559
5.336000	1.582293
5.337000	1.627386
5.338000	1.642847
5.339000	1.645423
5.340000	1.648000
5.341000	1.631895
5.342000	1.617401
5.343000	1.615147
5.344000	1.623521
5.345000	1.633828
5.346000	1.631895
5.347000	1.626098
5.348000	1.596143
5.349000	1.573274
5.350000	1.567154
5.351000	1.563933
5.352000	1.563933
5.353000	1.554593
5.354000	1.551372
5.355000	1.546862
5.356000	1.551050
5.357000	1.549439
5.358000	1.556525
5.359000	1.566188
5.360000	1.584548
5.361000	1.608705
5.362000	1.604839
5.363000	1.588735
5.364000	1.548795
5.365000	1.526571
5.366000	1.505634
5.367000	1.493717
5.368000	1.503058
5.369000	1.526248
5.370000	1.562001
5.371000	1.576495
5.372000	1.592600
5.373000	1.616757
5.374000	1.607094
5.375000	1.574885
5.376000	1.567477
5.377000	1.558780
5.378000	1.557169
5.379000	1.560713
5.380000	1.562967
5.381000	1.516908
5.382000	1.463118
5.383000	1.449268
5.384000	1.471814
5.385000	1.512720
5.386000	1.560068
5.387000	1.622555
5.388000	1.695992
5.389000	1.748494
5.390000	1.735932
5.391000	1.695026
5.392000	1.627708
5.393000	1.561679
5.394000	1.522061
5.395000	1.509499
5.396000	1.518840
5.397000	1.536555
5.398000	1.561679
5.399000	1.581971
5.400000	1.598075
5.401000	1.589057
5.402000	1.593566
5.403000	1.628674
5.404000	1.662172
5.405000	1.662816
5.406000	1.646390
5.407000	1.605806
5.408000	1.589379
5.409000	1.593888
5.410000	1.582937
5.411000	1.569409
5.412000	1.548151
5.413000	1.549117
5.414000	1.532046
5.415000	1.541709
5.416000	1.567799
5.417000	1.592600
5.418000	1.603229
5.419000	1.636727
5.420000	1.613214
5.421000	1.598398
5.422000	1.590345
5.423000	1.588735
5.424000	1.599364
5.425000	1.614824
5.426000	1.626098
5.427000	1.636405
5.428000	1.647356
5.429000	1.640270
5.430000	1.611281
5.431000	1.588091
5.432000	1.599686
5.433000	1.597109
5.434000	1.598398
5.435000	1.604195
5.436000	1.597109
5.437000	1.590667
5.438000	1.590345
5.439000	1.582937
5.440000	1.555881
5.441000	1.532046
5.442000	1.513687
5.443000	1.470526
5.444000	1.444759
5.445000	1.436384
5.446000	1.460863
5.447000	1.488563
5.448000	1.517874
5.449000	1.552982
5.450000	1.596465
5.451000	1.630285
5.452000	1.653798
5.453000	1.660884
5.454000	1.667970
5.455000	1.658951
5.456000	1.638659
5.457000	1.618367
5.458000	1.612248
5.459000	1.602585
5.460000	1.598720
5.461000	1.573918
5.462000	1.552338
5.463000	1.531724
5.464000	1.499837
5.465000	1.469882
5.466000	1.450234
5.467000	1.417703
5.468000	1.401598
5.469000	1.397411
5.470000	1.430264
5.471000	1.521739
5.472000	1.597431
5.473000	1.640270
5.474000	1.696636
5.475000	1.737542
5.476000	1.742696
5.477000	1.733677
5.478000	1.698891
5.479000	1.659918
5.480000	1.635438
5.481000	1.627708
5.482000	1.599686
5.483000	1.604839
5.484000	1.607416
5.485000	1.612248
5.486000	1.631573
5.487000	1.643813
5.488000	1.642847
5.489000	1.635438
5.490000	1.605484
5.491000	1.578428
5.492000	1.545252
5.493000	1.526571
5.494000	1.513365
5.495000	1.515941
5.496000	1.515941
5.497000	1.524316
5.498000	1.560390
5.499000	1.560713
5.500000	1.549761
5.501000	1.576817
5.502000	1.621910
5.503000	1.640914
5.504000	1.643813
5.505000	1.614502
5.506000	1.601296
5.507000	1.577139
5.508000	1.575851
5.509000	1.587446
5.510000	1.592922
5.511000	1.592600
5.512000	1.597109
5.513000	1.593566
5.514000	1.582615
5.515000	1.583903
5.516000	1.585192
5.517000	1.589057
5.518000	1.593566
5.519000	1.596143
5.520000	1.596143
5.521000	1.585192
5.522000	1.582937
5.523000	1.575207
5.524000	1.555559
5.525000	1.546862
5.526000	1.553626
5.527000	1.548151
5.528000	1.535911
5.529000	1.522061
5.530000	1.501125
5.531000	1.459253
5.532000	1.450234
5.533000	1.463118
5.534000	1.513687
5.535000	1.586802
5.536000	1.648644
5.537000	1.686651
5.538000	1.694060
5.539000	1.683431
5.540000	1.670869
5.541000	1.631251
5.542000	1.591634
5.543000	1.563611
5.544000	1.534623
5.545000	1.522705
5.546000	1.542031
5.547000	1.573918
5.548000	1.596787
5.549000	1.598398
5.550000	1.602263
5.551000	1.600008
5.552000	1.593888
5.553000	1.587446
5.554000	1.583903
5.555000	1.577784
5.556000	1.581327
5.557000	1.595499
5.558000	1.613858
5.559000	1.608705
5.560000	1.599042
5.561000	1.596465
5.562000	1.591634
5.563000	1.578428
5.564000	1.584548
5.565000	1.608705
5.566000	1.621588
5.567000	1.630607
5.568000	1.644457
5.569000	1.634794
5.570000	1.618045
5.571000	1.602585
5.572000	1.576173
5.573000	1.550728
5.574000	1.523027
5.575000	1.515941
5.576000	1.505634
5.577000	1.488885
5.578000	1.486631
5.579000	1.486631
5.580000	1.469238
5.581000	1.460219
5.582000	1.473747
5.583000	1.491140
5.584000	1.547185
5.585000	1.591956
5.586000	1.657019
5.587000	1.704689
5.588000	1.714352
5.589000	1.715318
5.590000	1.711453
5.591000	1.692771
5.592000	1.669903
5.593000	1.649933
5.594000	1.637371
5.595000	1.616757
5.596000	1.597431
5.597000	1.586158
5.598000	1.567799
5.599000	1.561035
5.600000	1.562645
5.601000	1.560390
5.602000	1.535267
5.603000	1.514331
5.604000	1.509822
5.605000	1.518518
5.606000	1.520129
5.607000	1.536233
5.608000	1.547185
5.609000	1.586802
5.610000	1.605806
5.611000	1.616113
5.612000	1.626098
5.613000	1.645745
5.614000	1.633506
5.615000	1.610959
5.616000	1.621910
5.617000	1.619334
5.618000	1.619978
5.619000	1.632218
5.620000	1.630929
5.621000	1.618367
5.622000	1.583581
5.623000	1.567799
5.624000	1.555237
5.625000	1.547507
5.626000	1.542675
5.627000	1.563611
5.628000	1.585192
5.629000	1.605484
5.630000	1.609349
5.631000	1.605806
5.632000	1.564900
5.633000	1.523994
5.634000	1.477612
5.635000	1.468271
5.636000	1.487597
5.637000	1.513687
5.638000	1.530114
5.639000	1.520129
5.640000	1.506923
5.641000	1.528503
5.642000	1.556847
5.643000	1.573918
5.644000	1.594210
5.645000	1.590989
5.646000	1.595177
5.647000	1.620622
5.648000	1.639948
5.649000	1.634150
5.650000	1.612248
5.651000	1.536555
5.652000	1.490496
5.653000	1.459575
5.654000	1.462796
5.655000	1.491140
5.656000	1.527859
5.657000	1.593244
5.658000	1.672157
5.659000	1.724014
5.660000	1.750748
5.661000	1.719183
5.662000	1.654764
5.663000	1.620622
5.664000	1.606772
5.665000	1.580682
5.666000	1.584870
5.667000	1.618045
5.668000	1.642525
5.669000	1.643491
5.670000	1.635116
5.671000	1.623199
5.672000	1.614824
5.673000	1.597753
5.674000	1.592278
5.675000	1.598720
5.676000	1.607094
5.677000	1.605162
5.678000	1.597753
5.679000	1.594210
5.680000	1.586480
5.681000	1.583259
5.682000	1.578428
5.683000	1.574240
5.684000	1.571020
5.685000	1.563933
5.686000	1.560390
5.687000	1.560390
5.688000	1.572630
5.689000	1.571342
5.690000	1.572308
5.691000	1.575207
5.692000	1.558458
5.693000	1.563933
5.694000	1.597753
5.695000	1.608383
5.696000	1.597431
5.697000	1.578106
5.698000	1.567477
5.699000	1.543319
5.700000	1.509822
5.701000	1.480189
5.702000	1.446691
5.703000	1.452811
5.704000	1.478578
5.705000	1.527537
5.706000	1.595177
5.707000	1.646390
5.708000	1.683108
5.709000	1.699535
5.710000	1.672479
5.711000	1.650255
5.712000	1.634472
5.713000	1.619012
5.714000	1.594855
5.715000	1.569409
5.716000	1.534623
5.717000	1.490818
5.718000	1.468593
5.719000	1.478901
5.720000	1.504668
5.721000	1.528181
5.722000	1.571664
5.723000	1.599042
5.724000	1.600008
5.725000	1.557814
5.726000	1.601619
5.727000	1.641236
5.728000	1.612892
5.729000	1.603229
5.730000	1.591312
5.731000	1.606772
5.732000	1.629641
5.733000	1.631251
5.734000	1.636405
5.735000	1.641558
5.736000	1.634150
5.737000	1.580038
5.738000	1.532046
5.739000	1.507567
5.740000	1.506279
5.741000	1.513687
5.742000	1.516908
5.743000	1.530436
5.744000	1.577139
5.745000	1.590345
5.746000	1.616113
5.747000	1.617079
5.748000	1.615469
5.749000	1.620944
5.750000	1.616113
5.751000	1.630929
5.752000	1.643491
5.753000	1.632862
5.754000	1.627708
5.755000	1.621588
5.756000	1.620622
5.757000	1.628674
5.758000	1.635438
5.759000	1.628997
5.760000	1.621266
5.761000	1.609349
5.762000	1.591634
5.763000	1.583581
5.764000	1.584548
5.765000	1.582293
5.766000	1.567799
5.767000	1.562967
5.768000	1.575529
5.769000	1.577461
5.770000	1.590667
5.771000	1.589701
5.772000	1.581649
5.773000	1.577461
5.774000	1.576817
5.775000	1.585192
5.776000	1.590667
5.777000	1.594210
5.778000	1.579072
5.779000	1.550406
5.780000	1.529469
5.781000	1.512398
5.782000	1.531080
5.783000	1.548795
5.784000	1.568121
5.785000	1.557169
5.786000	1.542997
5.787000	1.522705
5.788000	1.504990
5.789000	1.500481
5.790000	1.505634
5.791000	1.530436
5.792000	1.548473
5.793000	1.567477
5.794000	1.574885
5.795000	1.575207
5.796000	1.585514
5.797000	1.608060
5.798000	1.618045
5.799000	1.607738
5.800000	1.584225
5.801000	1.539454
5.802000	1.515941
5.803000	1.517230
5.804000	1.537200
5.805000	1.586480
5.806000	1.625776
5.807000	1.607094
5.808000	1.559424
5.809000	1.527215
5.810000	1.519484
5.811000	1.553626
5.812000	1.582937
5.813000	1.624487
5.814000	1.676344
5.815000	1.681176
5.816000	1.671191
5.817000	1.660884
5.818000	1.652187
5.819000	1.638015
5.820000	1.616435
5.821000	1.596143
5.822000	1.584548
5.823000	1.582937
5.824000	1.572630
5.825000	1.556203
5.826000	1.574885
5.827000	1.603551
5.828000	1.617401
5.829000	1.632540
5.830000	1.622233
5.831000	1.614180
5.832000	1.597753
5.833000	1.523994
5.834000	1.436384
5.835000	1.387426
5.836000	1.390647
5.837000	1.412871
5.838000	1.447013
5.839000	1.514653
5.840000	1.566510
5.841000	1.619978
5.842000	1.672157
5.843000	1.687618
5.844000	1.704367
5.845000	1.700824
5.846000	1.669258
5.847000	1.652509
5.848000	1.653798
5.849000	1.648644
5.850000	1.666360
5.851000	1.660240
5.852000	1.647356
5.853000	1.636405
5.854000	1.627708
5.855000	1.616435
5.856000	1.610637
5.857000	1.606772
5.858000	1.605806
5.859000	1.601941
5.860000	1.588091
5.861000	1.583903
5.862000	1.566188
5.863000	1.551372
5.864000	1.547185
5.865000	1.548795
5.866000	1.538810
5.867000	1.537522
5.868000	1.536233
5.869000	1.549117
5.870000	1.585836
5.871000	1.593888
5.872000	1.590345
5.873000	1.580682
5.874000	1.584225
5.875000	1.596465
5.876000	1.617401
5.877000	1.613858
5.878000	1.600974
5.879000	1.590989
5.880000	1.578750
5.881000	1.582937
5.882000	1.570375
5.883000	1.545896
5.884000	1.534945
5.885000	1.521417
5.886000	1.520129
5.887000	1.521739
5.888000	1.518840
5.889000	1.517230
5.890000	1.539454
5.891000	1.552660
5.892000	1.559746
5.893000	1.568765
5.894000	1.576817
5.895000	1.596787
5.896000	1.630607
5.897000	1.634150
5.898000	1.622233
5.899000	1.593244
5.900000	1.571664
5.901000	1.569731
5.902000	1.602907
5.903000	1.630929
5.904000	1.631895
5.905000	1.602263
5.906000	1.580038
5.907000	1.572308
5.908000	1.560390
5.909000	1.559102
5.910000	1.566510
5.911000	1.576173
5.912000	1.587768
5.913000	1.598720
5.914000	1.600974
5.915000	1.573274
5.916000	1.527859
5.917000	1.503380
5.918000	1.509822
5.919000	1.525282
5.920000	1.520129
5.921000	1.497904
5.922000	1.468271
5.923000	1.448946
5.924000	1.464084
5.925000	1.481477
5.926000	1.502413
5.927000	1.542031
5.928000	1.586158
5.929000	1.605484
5.930000	1.619012
5.931000	1.646068
5.932000	1.686007
5.933000	1.674734
5.934000	1.690517
5.935000	1.705977
5.936000	1.695026
5.937000	1.694060
5.938000	1.683431
5.939000	1.692449
5.940000	1.691483
5.941000	1.669580
5.942000	1.634472
5.943000	1.611603
5.944000	1.594532
5.945000	1.592278
5.946000	1.593244
5.947000	1.604517
5.948000	1.608705
5.949000	1.600008
5.950000	1.591956
5.951000	1.575851
5.952000	1.569409
5.953000	1.571664
5.954000	1.574885
5.955000	1.580682
5.956000	1.590667
5.957000	1.591956
5.958000	1.608383
5.959000	1.588091
5.960000	1.581327
5.961000	1.538166
5.962000	1.499192
5.963000	1.483732
5.964000	1.486309
5.965000	1.505312
5.966000	1.533657
5.967000	1.562001
5.968000	1.585514
5.969000	1.611603
5.970000	1.620622
5.971000	1.611926
5.972000	1.596143
5.973000	1.607416
5.974000	1.626098
5.975000	1.615791
5.976000	1.609027
5.977000	1.614824
5.978000	1.598075
5.979000	1.561357
5.980000	1.534945
5.981000	1.518518
5.982000	1.512720
5.983000	1.520451
5.984000	1.545896
5.985000	1.566188
5.986000	1.587768
5.987000	1.592922
5.988000	1.601619
5.989000	1.594855
5.990000	1.594855
5.991000	1.588413
5.992000	1.562967
5.993000	1.563933
5.994000	1.585514
5.995000	1.596787
5.996000	1.599042
5.997000	1.603229
5.998000	1.603229
5.999000	1.610959
6.000000	1.614502
6.001000	1.617723
6.002000	1.616435
6.003000	1.606772
6.004000	1.582937
6.005000	1.561035
6.006000	1.554271
6.007000	1.552982
6.008000	1.554915
6.009000	1.558136
6.010000	1.539776
6.011000	1.536233
6.012000	1.530758
6.013000	1.553304
6.014000	1.560713
6.015000	1.571986
6.016000	1.581327
6.017000	1.592922
6.018000	1.611926
6.019000	1.621588
6.020000	1.608060
6.021000	1.594855
6.022000	1.590667
6.023000	1.584548
6.024000	1.566510
6.025000	1.560390
6.026000	1.547829
6.027000	1.561679
6.028000	1.542031
6.029000	1.553949
6.030000	1.578106
6.031000	1.576495
6.032000	1.585514
6.033000	1.584870
6.034000	1.587124
6.035000	1.577461
6.036000	1.576495
6.037000	1.583581
6.038000	1.613536
6.039000	1.626098
6.040000	1.602263
6.041000	1.584548
6.042000	1.586802
6.043000	1.595177
6.044000	1.602263
6.045000	1.600330
6.046000	1.605162
6.047000	1.599686
6.048000	1.586802
6.049000	1.572952
6.050000	1.528181
6.051000	1.505634
6.052000	1.485020
6.053000	1.482766
6.054000	1.474391
6.055000	1.477934
6.056000	1.506279
6.057000	1.511754
6.058000	1.501447
6.059000	1.531724
6.060000	1.567799
6.061000	1.574563
6.062000	1.572952
6.063000	1.585836
6.064000	1.591312
6.065000	1.611603
6.066000	1.625131
6.067000	1.646068
6.068000	1.661850
6.069000	1.674412
6.070000	1.666360
6.071000	1.650899
6.072000	1.610959
6.073000	1.581327
6.074000	1.583581
6.075000	1.581649
6.076000	1.585192
6.077000	1.598075
6.078000	1.609027
6.079000	1.620622
6.080000	1.606128
6.081000	1.587446
6.082000	1.574563
6.083000	1.540743
6.084000	1.512720
6.085000	1.522705
6.086000	1.542675
6.087000	1.563289
6.088000	1.598720
6.089000	1.645423
6.090000	1.681176
6.091000	1.686651
6.092000	1.674412
6.093000	1.657985
6.094000	1.640914
6.095000	1.620300
6.096000	1.595177
6.097000	1.570375
6.098000	1.554915
6.099000	1.531724
6.100000	1.519162
6.101000	1.516586
6.102000	1.529469
6.103000	1.547507
6.104000	1.574240
6.105000	1.608060
6.106000	1.621910
6.107000	1.642202
6.108000	1.646390
6.109000	1.621588
6.110000	1.593244
6.111000	1.576495
6.112000	1.568443
6.113000	1.579394
6.114000	1.590023
6.115000	1.588413
6.116000	1.582615
6.117000	1.592278
6.118000	1.609993
6.119000	1.631251
6.120000	1.632862
6.121000	1.625454
6.122000	1.615147
6.123000	1.597431
6.124000	1.586802
6.125000	1.544930
6.126000	1.471170
6.127000	1.406107
6.128000	1.370033
6.129000	1.375508
6.130000	1.416736
6.131000	1.487919
6.132000	1.578106
6.133000	1.634150
6.134000	1.701146
6.135000	1.733999
6.136000	1.723370
6.137000	1.700824
6.138000	1.672801
6.139000	1.645423
6.140000	1.636083
6.141000	1.628030
6.142000	1.622233
6.143000	1.609027
6.144000	1.587446
6.145000	1.572630
6.146000	1.558136
6.147000	1.562323
6.148000	1.568121
6.149000	1.559746
6.150000	1.557814
6.151000	1.574240
6.152000	1.573918
6.153000	1.559424
6.154000	1.557169
6.155000	1.566188
6.156000	1.579716
6.157000	1.602907
6.158000	1.608060
6.159000	1.632862
6.160000	1.630929
6.161000	1.617723
6.162000	1.620944
6.163000	1.620944
6.164000	1.606450
6.165000	1.590989
6.166000	1.571986
6.167000	1.572308
6.168000	1.557169
6.169000	1.549761
6.170000	1.532368
6.171000	1.512720
6.172000	1.503702
6.173000	1.508211
6.174000	1.523672
6.175000	1.537522
6.176000	1.522061
6.177000	1.492428
6.178000	1.481799
6.179000	1.503058
6.180000	1.541065
6.181000	1.574240
6.182000	1.625454
6.183000	1.695348
6.184000	1.730134
6.185000	1.723048
6.186000	1.709198
6.187000	1.686974
6.188000	1.661528
6.189000	1.635761
6.190000	1.611281
6.191000	1.601296
6.192000	1.590345
6.193000	1.577139
6.194000	1.572630
6.195000	1.542675
6.196000	1.518196
6.197000	1.498226
6.198000	1.489852
6.199000	1.516908
6.200000	1.546862
6.201000	1.556847
6.202000	1.572952
6.203000	1.596143
6.204000	1.601941
6.205000	1.603229
6.206000	1.603551
6.207000	1.587124
6.208000	1.555881
6.209000	1.540098
6.210000	1.535911
6.211000	1.525282
6.212000	1.534945
6.213000	1.549761
6.214000	1.577784
6.215000	1.567799
6.216000	1.549439
6.217000	1.513365
6.218000	1.514653
6.219000	1.560068
6.220000	1.603229
6.221000	1.650899
6.222000	1.721438
6.223000	1.735610
6.224000	1.727558
6.225000	1.703078
6.226000	1.685041
6.227000	1.658629
6.228000	1.609671
6.229000	1.574240
6.230000	1.564578
6.231000	1.556847
6.232000	1.537844
6.233000	1.539454
6.234000	1.569409
6.235000	1.574563
6.236000	1.562323
6.237000	1.563289
6.238000	1.593888
6.239000	1.622233
6.240000	1.633506
6.241000	1.635438
6.242000	1.628674
6.243000	1.613858
6.244000	1.587446
6.245000	1.578106
6.246000	1.585192
6.247000	1.586158
6.248000	1.583903
6.249000	1.579072
6.250000	1.572630
6.251000	1.579072
6.252000	1.580038
6.253000	1.588091
6.254000	1.590667
6.255000	1.595499
6.256000	1.594210
6.257000	1.586802
6.258000	1.594532
6.259000	1.593244
6.260000	1.594532
6.261000	1.593888
6.262000	1.583903
6.263000	1.581327
6.264000	1.577139
6.265000	1.577461
6.266000	1.583581
6.267000	1.554593
6.268000	1.514653
6.269000	1.482444
6.270000	1.465695
6.271000	1.466017
6.272000	1.480511
6.273000	1.515619
6.274000	1.547507
6.275000	1.584548
6.276000	1.644457
6.277000	1.681820
6.278000	1.678921
6.279000	1.666360
6.280000	1.645423
6.281000	1.623521
6.282000	1.607094
6.283000	1.607738
6.284000	1.608705
6.285000	1.606450
6.286000	1.602263
6.287000	1.583259
6.288000	1.576495
6.289000	1.569731
6.290000	1.546862
6.291000	1.525604
6.292000	1.513365
6.293000	1.507567
6.294000	1.511754
6.295000	1.537200
6.296000	1.539454
6.297000	1.539132
6.298000	1.540421
6.299000	1.532368
6.300000	1.520773
6.301000	1.521417
6.302000	1.557169
6.303000	1.586802
6.304000	1.597431
6.305000	1.600974
6.306000	1.600652
6.307000	1.605484
6.308000	1.592278
6.309000	1.597753
6.310000	1.614824
6.311000	1.625131
6.312000	1.598398
6.313000	1.566510
6.314000	1.542353
6.315000	1.566188
6.316000	1.597431
6.317000	1.591956
6.318000	1.610315
6.319000	1.626098
6.320000	1.650899
6.321000	1.653476
6.322000	1.668292
6.323000	1.650255
6.324000	1.611281
6.325000	1.569731
6.326000	1.552338
6.327000	1.550083
6.328000	1.561357
6.329000	1.577139
6.330000	1.583259
6.331000	1.587768
6.332000	1.610637
6.333000	1.638981
6.334000	1.654442
6.335000	1.655730
6.336000	1.649289
6.337000	1.641236
6.338000	1.622877
6.339000	1.612892
6.340000	1.609027
6.341000	1.603551
6.342000	1.609027
6.343000	1.581327
6.344000	1.576817
6.345000	1.552660
6.346000	1.532690
6.347000	1.521417
6.348000	1.503380
6.349000	1.494683
6.350000	1.504668
6.351000	1.515941
6.352000	1.519807
6.353000	1.532690
6.354000	1.553304
6.355000	1.576817
6.356000	1.610315
6.357000	1.612248
6.358000	1.600652
6.359000	1.598720
6.360000	1.601619
6.361000	1.607094
6.362000	1.584225
6.363000	1.555237
6.364000	1.546862
6.365000	1.546862
6.366000	1.548151
6.367000	1.557169
6.368000	1.549439
6.369000	1.540098
6.370000	1.542675
6.371000	1.558458
6.372000	1.556847
6.373000	1.542675
6.374000	1.526893
6.375000	1.511754
6.376000	1.562967
6.377000	1.586480
6.378000	1.590989
6.379000	1.586802
6.380000	1.620300
6.381000	1.665715
6.382000	1.687940
6.383000	1.695670
6.384000	1.691161
6.385000	1.681820
6.386000	1.678277
6.387000	1.647356
6.388000	1.611603
6.389000	1.609671
6.390000	1.601296
6.391000	1.589379
6.392000	1.588091
6.393000	1.586802
6.394000	1.582615
6.395000	1.579716
6.396000	1.588091
6.397000	1.581004
6.398000	1.580360
6.399000	1.582293
6.400000	1.572952
6.401000	1.551050
6.402000	1.525282
6.403000	1.517230
6.404000	1.508855
6.405000	1.476646
6.406000	1.445081
6.407000	1.426399
6.408000	1.486309
6.409000	1.525604
6.410000	1.561679
6.411000	1.622555
6.412000	1.630929
6.413000	1.636727
6.414000	1.637049
6.415000	1.634794
6.416000	1.644457
6.417000	1.648644
6.418000	1.649933
6.419000	1.655408
6.420000	1.659596
6.421000	1.659273
6.422000	1.647356
6.423000	1.637049
6.424000	1.634150
6.425000	1.634472
6.426000	1.625776
6.427000	1.596143
6.428000	1.562645
6.429000	1.534945
6.430000	1.526248
6.431000	1.521739
6.432000	1.511110
6.433000	1.505634
6.434000	1.521417
6.435000	1.521417
6.436000	1.533334
6.437000	1.544930
6.438000	1.571020
6.439000	1.624165
6.440000	1.653476
6.441000	1.655086
6.442000	1.657663
6.443000	1.654120
6.444000	1.636083
6.445000	1.621910
6.446000	1.600652
6.447000	1.593244
6.448000	1.588091
6.449000	1.569087
6.450000	1.550728
6.451000	1.543964
6.452000	1.523672
6.453000	1.502091
6.454000	1.487597
6.455000	1.490818
6.456000	1.505634
6.457000	1.522061
6.458000	1.529791
6.459000	1.546862
6.460000	1.559746
6.461000	1.565866
6.462000	1.623199
6.463000	1.648644
6.464000	1.634794
6.465000	1.620300
6.466000	1.599364
6.467000	1.599364
6.468000	1.585836
6.469000	1.577461
6.470000	1.578750
6.471000	1.580360
6.472000	1.590989
6.473000	1.615469
6.474000	1.640914
6.475000	1.658629
6.476000	1.665071
6.477000	1.681820
6.478000	1.664749
6.479000	1.614180
6.480000	1.554271
6.481000	1.505956
6.482000	1.495005
6.483000	1.489530
6.484000	1.502091
6.485000	1.542675
6.486000	1.589701
6.487000	1.634794
6.488000	1.664427
6.489000	1.689228
6.490000	1.679565
6.491000	1.670547
6.492000	1.663461
6.493000	1.639948
6.494000	1.619978
6.495000	1.587446
6.496000	1.561679
6.497000	1.559102
6.498000	1.561357
6.499000	1.570375
6.500000	1.583903
6.501000	1.587768
6.502000	1.582937
6.503000	1.579716
6.504000	1.590345
6.505000	1.607738
6.506000	1.600652
6.507000	1.604195
6.508000	1.590345
6.509000	1.583903
6.510000	1.571342
6.511000	1.531402
6.512000	1.481155
6.513000	1.455066
6.514000	1.456676
6.515000	1.487597
6.516000	1.515297
6.517000	1.555237
6.518000	1.603551
6.519000	1.628674
6.520000	1.619334
6.521000	1.595177
6.522000	1.583259
6.523000	1.590667
6.524000	1.634150
6.525000	1.643491
6.526000	1.616113
6.527000	1.576495
6.528000	1.525282
6.529000	1.488563
6.530000	1.471492
6.531000	1.479867
6.532000	1.504990
6.533000	1.552982
6.534000	1.614180
6.535000	1.645423
6.536000	1.664749
6.537000	1.681176
6.538000	1.686007
6.539000	1.669580
6.540000	1.624487
6.541000	1.600652
6.542000	1.579072
6.543000	1.552660
6.544000	1.523994
6.545000	1.545252
6.546000	1.570375
6.547000	1.571986
6.548000	1.582615
6.549000	1.585192
6.550000	1.601619
6.551000	1.624487
6.552000	1.632218
6.553000	1.631895
6.554000	1.635116
6.555000	1.645745
6.556000	1.648966
6.557000	1.649289
6.558000	1.622877
6.559000	1.622877
6.560000	1.600008
6.561000	1.574240
6.562000	1.568121
6.563000	1.549117
6.564000	1.533334
6.565000	1.528503
6.566000	1.537844
6.567000	1.547507
6.568000	1.554271
6.569000	1.587768
6.570000	1.611926
6.571000	1.618690
6.572000	1.607094
6.573000	1.598720
6.574000	1.586802
6.575000	1.565866
6.576000	1.553626
6.577000	1.544608
6.578000	1.532368
6.579000	1.518196
6.580000	1.512398
6.581000	1.509499
6.582000	1.475357
6.583000	1.427688
6.584000	1.415448
6.585000	1.442504
6.586000	1.475357
6.587000	1.513043
6.588000	1.564256
6.589000	1.638659
6.590000	1.718539
6.591000	1.748494
6.592000	1.730778
6.593000	1.709520
6.594000	1.689228
6.595000	1.661528
6.596000	1.641880
6.597000	1.618367
6.598000	1.605162
6.599000	1.596465
6.600000	1.599042
6.601000	1.608383
6.602000	1.610959
6.603000	1.606772
6.604000	1.607094
6.605000	1.612892
6.606000	1.609671
6.607000	1.605806
6.608000	1.590345
6.609000	1.564256
6.610000	1.527859
6.611000	1.484054
6.612000	1.431875
6.613000	1.392257
6.614000	1.382272
6.615000	1.419313
6.616000	1.477934
6.617000	1.536233
6.618000	1.602263
6.619000	1.665715
6.620000	1.684075
6.621000	1.675700
6.622000	1.715962
6.623000	1.720471
6.624000	1.685685
6.625000	1.666682
6.626000	1.670547
6.627000	1.666682
6.628000	1.679243
6.629000	1.668936
6.630000	1.639948
6.631000	1.627064
6.632000	1.619334
6.633000	1.614824
6.634000	1.615791
6.635000	1.611281
6.636000	1.607416
6.637000	1.603551
6.638000	1.594855
6.639000	1.588413
6.640000	1.570697
6.641000	1.558780
6.642000	1.544286
6.643000	1.542997
6.644000	1.554593
6.645000	1.571020
6.646000	1.599364
6.647000	1.591634
6.648000	1.562001
6.649000	1.541065
6.650000	1.523672
6.651000	1.511432
6.652000	1.509177
6.653000	1.507567
6.654000	1.507245
6.655000	1.517230
6.656000	1.517874
6.657000	1.499192
6.658000	1.501125
6.659000	1.499515
6.660000	1.532690
6.661000	1.541065
6.662000	1.539454
6.663000	1.543319
6.664000	1.563611
6.665000	1.603551
6.666000	1.653476
6.667000	1.685685
6.668000	1.677633
6.669000	1.664427
6.670000	1.654442
6.671000	1.651865
6.672000	1.662172
6.673000	1.671191
6.674000	1.666682
6.675000	1.649933
6.676000	1.643491
6.677000	1.638015
6.678000	1.615147
6.679000	1.599686
6.680000	1.582937
6.681000	1.569409
6.682000	1.557169
6.683000	1.549761
6.684000	1.539132
6.685000	1.541065
6.686000	1.544286
6.687000	1.532046
6.688000	1.519484
6.689000	1.513043
6.690000	1.523672
6.691000	1.552338
6.692000	1.585836
6.693000	1.596465
6.694000	1.617401
6.695000	1.616435
6.696000	1.624809
6.697000	1.630929
6.698000	1.625131
6.699000	1.621588
6.700000	1.608060
6.701000	1.599042
6.702000	1.590989
6.703000	1.576495
6.704000	1.569087
6.705000	1.567799
6.706000	1.563933
6.707000	1.576173
6.708000	1.585192
6.709000	1.580038
6.710000	1.558136
6.711000	1.545252
6.712000	1.524960
6.713000	1.524316
6.714000	1.549761
6.715000	1.563611
6.716000	1.588735
6.717000	1.572630
6.718000	1.554915
6.719000	1.549117
6.720000	1.542997
6.721000	1.555559
6.722000	1.572630
6.723000	1.588735
6.724000	1.616435
6.725000	1.630285
6.726000	1.620300
6.727000	1.600008
6.728000	1.589057
6.729000	1.589701
6.730000	1.600330
6.731000	1.607094
6.732000	1.622233
6.733000	1.623843
6.734000	1.613536
6.735000	1.590023
6.736000	1.581649
6.737000	1.577461
6.738000	1.579716
6.739000	1.575851
6.740000	1.566832
6.741000	1.571664
6.742000	1.598720
6.743000	1.602907
6.744000	1.579072
6.745000	1.539454
6.746000	1.486309
6.747000	1.454743
6.748000	1.476002
6.749000	1.512076
6.750000	1.552660
6.751000	1.618367
6.752000	1.662494
6.753000	1.696314
6.754000	1.706621
6.755000	1.698569
6.756000	1.666360
6.757000	1.633184
6.758000	1.607416
6.759000	1.593888
6.760000	1.587446
6.761000	1.576817
6.762000	1.577139
6.763000	1.598720
6.764000	1.603229
6.765000	1.606450
6.766000	1.607416
6.767000	1.602263
6.768000	1.592600
6.769000	1.578106
6.770000	1.519484
6.771000	1.468916
6.772000	1.457642
6.773000	1.465050
6.774000	1.473103
6.775000	1.493073
6.776000	1.519807
6.777000	1.571664
6.778000	1.645745
6.779000	1.678599
6.780000	1.654764
6.781000	1.629641
6.782000	1.614180
6.783000	1.613536
6.784000	1.615147
6.785000	1.627064
6.786000	1.643813
6.787000	1.646068
6.788000	1.634794
6.789000	1.619334
6.790000	1.609993
6.791000	1.581327
6.792000	1.543319
6.793000	1.524316
6.794000	1.505634
6.795000	1.492751
6.796000	1.472781
6.797000	1.461830
6.798000	1.480833
6.799000	1.523672
6.800000	1.561357
6.801000	1.575207
6.802000	1.599042
6.803000	1.632862
6.804000	1.664427
6.805000	1.673768
6.806000	1.649933
6.807000	1.623521
6.808000	1.609027
6.809000	1.612892
6.810000	1.623199
6.811000	1.595177
6.812000	1.565544
6.813000	1.552982
6.814000	1.545574
6.815000	1.534623
6.816000	1.521739
6.817000	1.509822
6.818000	1.508533
6.819000	1.539132
6.820000	1.580360
6.821000	1.605806
6.822000	1.609993
6.823000	1.630929
6.824000	1.662172
6.825000	1.658307
6.826000	1.648322
6.827000	1.657985
6.828000	1.656375
6.829000	1.645101
6.830000	1.630285
6.831000	1.618045
6.832000	1.609671
6.833000	1.599042
6.834000	1.603873
6.835000	1.601296
6.836000	1.591956
6.837000	1.574240
6.838000	1.557492
6.839000	1.551050
6.840000	1.546218
6.841000	1.544930
6.842000	1.548473
6.843000	1.542353
6.844000	1.533334
6.845000	1.522061
6.846000	1.524316
6.847000	1.527215
6.848000	1.525926
6.849000	1.540743
6.850000	1.564578
6.851000	1.598398
6.852000	1.632862
6.853000	1.639626
6.854000	1.643491
6.855000	1.661850
6.856000	1.666360
6.857000	1.667326
6.858000	1.650255
6.859000	1.623199
6.860000	1.594532
6.861000	1.566832
6.862000	1.548473
6.863000	1.544608
6.864000	1.533657
6.865000	1.519162
6.866000	1.496938
6.867000	1.476646
6.868000	1.472137
6.869000	1.491462
6.870000	1.546540
6.871000	1.576173
6.872000	1.600974
6.873000	1.627064
6.874000	1.671191
6.875000	1.686974
6.876000	1.672801
6.877000	1.654442
6.878000	1.656375
6.879000	1.649289
6.880000	1.602263
6.881000	1.580038
6.882000	1.553304
6.883000	1.541709
6.884000	1.546862
6.885000	1.568121
6.886000	1.570697
6.887000	1.581649
6.888000	1.590023
6.889000	1.583259
6.890000	1.576173
6.891000	1.580682
6.892000	1.590989
6.893000	1.603229
6.894000	1.613858
6.895000	1.610959
6.896000	1.599042
6.897000	1.591634
6.898000	1.592922
6.899000	1.588735
6.900000	1.590345
6.901000	1.567477
6.902000	1.524638
6.903000	1.490496
6.904000	1.475357
6.905000	1.480833
6.906000	1.500159
6.907000	1.517230
6.908000	1.517874
6.909000	1.529791
6.910000	1.547185
6.911000	1.568443
6.912000	1.619978
6.913000	1.667326
6.914000	1.688584
6.915000	1.697603
6.916000	1.698569
6.917000	1.690195
6.918000	1.662494
6.919000	1.658951
6.920000	1.655408
6.921000	1.646390
6.922000	1.634150
6.923000	1.610315
6.924000	1.581004
6.925000	1.558780
6.926000	1.547829
6.927000	1.558136
6.928000	1.568765
6.929000	1.549761
6.930000	1.524638
6.931000	1.514009
6.932000	1.507245
6.933000	1.554915
6.934000	1.575207
6.935000	1.589379
6.936000	1.605806
6.937000	1.614180
6.938000	1.611281
6.939000	1.603229
6.940000	1.601941
6.941000	1.589057
6.942000	1.604195
6.943000	1.607738
6.944000	1.594532
6.945000	1.582937
6.946000	1.582615
6.947000	1.582615
6.948000	1.578106
6.949000	1.574240
6.950000	1.560068
6.951000	1.550083
6.952000	1.534623
6.953000	1.546218
6.954000	1.557814
6.955000	1.575207
6.956000	1.595499
6.957000	1.615147
6.958000	1.632218
6.959000	1.617079
6.960000	1.605806
6.961000	1.617079
6.962000	1.608060
6.963000	1.590667
6.964000	1.597109
6.965000	1.592922
6.966000	1.592922
6.967000	1.597753
6.968000	1.597753
6.969000	1.586158
6.970000	1.559746
6.971000	1.551050
6.972000	1.548473
6.973000	1.563611
6.974000	1.572308
6.975000	1.578428
6.976000	1.578106
6.977000	1.582293
6.978000	1.569087
6.979000	1.517552
6.980000	1.466339
6.981000	1.429620
6.982000	1.446047
6.983000	1.467949
6.984000	1.503380
6.985000	1.549117
6.986000	1.573596
6.987000	1.565866
6.988000	1.579072
6.989000	1.601296
6.990000	1.599686
6.991000	1.628997
6.992000	1.659273
6.993000	1.690839
6.994000	1.711775
6.995000	1.719183
6.996000	1.697925
6.997000	1.665393
6.998000	1.634794
6.999000	1.618367
7.000000	1.613214
7.001000	1.615147
7.002000	1.608705
7.003000	1.586802
7.004000	1.523672
7.005000	1.427688
7.006000	1.340078
7.007000	1.285644
7.008000	1.296917
7.009000	1.354250
7.010000	1.428010
7.011000	1.523027
7.012000	1.642847
7.013000	1.778126
7.014000	1.855107
7.015000	1.860905
7.016000	1.851886
7.017000	1.824186
7.018000	1.787467
7.019000	1.741085
7.020000	1.708232
7.021000	1.681820
7.022000	1.663783
7.023000	1.643491
7.024000	1.630929
7.025000	1.622877
7.026000	1.610959
7.027000	1.602907
7.028000	1.598398
7.029000	1.594210
7.030000	1.591956
7.031000	1.592278
7.032000	1.589701
7.033000	1.587768
7.034000	1.582615
7.035000	1.583581
7.036000	1.590345
7.037000	1.595821
7.038000	1.602263
7.039000	1.604195
7.040000	1.606450
7.041000	1.605162
7.042000	1.596787
7.043000	1.572952
7.044000	1.537844
7.045000	1.513687
7.046000	1.508533
7.047000	1.509177
7.048000	1.517874
7.049000	1.523672
7.050000	1.539454
7.051000	1.564578
7.052000	1.588413
7.053000	1.611926
7.054000	1.624809
7.055000	1.618690
7.056000	1.603873
7.057000	1.593244
7.058000	1.583259
7.059000	1.568765
7.060000	1.568765
7.061000	1.569087
7.062000	1.569409
7.063000	1.562323
7.064000	1.542997
7.065000	1.529791
7.066000	1.528825
7.067000	1.535267
7.068000	1.542675
7.069000	1.528181
7.070000	1.491784
7.071000	1.451845
7.072000	1.450878
7.073000	1.471170
7.074000	1.521095
7.075000	1.572308
7.076000	1.604839
7.077000	1.620300
7.078000	1.624487
7.079000	1.632540
7.080000	1.597109
7.081000	1.569731
7.082000	1.563611
7.083000	1.589379
7.084000	1.596787
7.085000	1.587124
7.086000	1.579394
7.087000	1.571986
7.088000	1.567799
7.089000	1.567477
7.090000	1.582615
7.091000	1.584870
7.092000	1.580682
7.093000	1.581649
7.094000	1.579394
7.095000	1.579716
7.096000	1.578106
7.097000	1.601296
7.098000	1.617079
7.099000	1.597431
7.100000	1.563289
7.101000	1.522383
7.102000	1.486953
7.103000	1.471814
7.104000	1.460541
7.105000	1.446691
7.106000	1.452167
7.107000	1.503702
7.108000	1.554271
7.109000	1.595499
7.110000	1.626420
7.111000	1.620944
7.112000	1.583581
7.113000	1.598075
7.114000	1.613536
7.115000	1.649933
7.116000	1.689550
7.117000	1.720794
7.118000	1.746239
7.119000	1.725947
7.120000	1.694382
7.121000	1.668614
7.122000	1.648000
7.123000	1.634794
7.124000	1.612892
7.125000	1.603551
7.126000	1.620300
7.127000	1.634794
7.128000	1.636727
7.129000	1.635116
7.130000	1.632540
7.131000	1.630607
7.132000	1.614180
7.133000	1.607416
7.134000	1.598398
7.135000	1.590023
7.136000	1.592922
7.137000	1.593566
7.138000	1.598075
7.139000	1.595821
7.140000	1.599042
7.141000	1.597431
7.142000	1.583903
7.143000	1.565222
7.144000	1.562001
7.145000	1.558458
7.146000	1.523994
7.147000	1.506923
7.148000	1.517552
7.149000	1.522705
7.150000	1.536555
7.151000	1.551372
7.152000	1.565544
7.153000	1.583581
7.154000	1.602585
7.155000	1.613858
7.156000	1.636405
7.157000	1.643813
7.158000	1.613214
7.159000	1.597109
7.160000	1.581004
7.161000	1.566188
7.162000	1.524638
7.163000	1.490174
7.164000	1.480189
7.165000	1.477934
7.166000	1.504990
7.167000	1.541065
7.168000	1.584870
7.169000	1.620622
7.170000	1.658951
7.171000	1.671191
7.172000	1.701790
7.173000	1.682464
7.174000	1.636083
7.175000	1.605162
7.176000	1.586480
7.177000	1.581327
7.178000	1.579072
7.179000	1.562001
7.180000	1.524638
7.181000	1.500803
7.182000	1.487275
7.183000	1.457642
7.184000	1.435418
7.185000	1.446691
7.186000	1.469238
7.187000	1.519484
7.188000	1.567799
7.189000	1.609671
7.190000	1.642847
7.191000	1.689872
7.192000	1.702434
7.193000	1.700502
7.194000	1.673124
7.195000	1.640914
7.196000	1.627708
7.197000	1.621588
7.198000	1.638015
7.199000	1.656053
7.200000	1.660240
7.201000	1.647678
7.202000	1.629319
7.203000	1.600330
7.204000	1.583903
7.205000	1.571342
7.206000	1.553304
7.207000	1.536233
7.208000	1.505312
7.209000	1.477934
7.210000	1.479223
7.211000	1.485020
7.212000	1.502091
7.213000	1.541065
7.214000	1.611603
7.215000	1.654120
7.216000	1.671513
7.217000	1.674090
7.218000	1.641236
7.219000	1.638015
7.220000	1.650899
7.221000	1.621266
7.222000	1.582937
7.223000	1.565222
7.224000	1.563933
7.225000	1.567154
7.226000	1.569409
7.227000	1.567477
7.228000	1.549117
7.229000	1.559746
7.230000	1.561035
7.231000	1.558136
7.232000	1.568443
7.233000	1.600974
7.234000	1.645745
7.235000	1.670869
7.236000	1.680210
7.237000	1.645423
7.238000	1.625776
7.239000	1.599686
7.240000	1.558458
7.241000	1.546540
7.242000	1.543642
7.243000	1.544930
7.244000	1.549761
7.245000	1.572952
7.246000	1.590345
7.247000	1.601296
7.248000	1.603229
7.249000	1.603551
7.250000	1.602263
7.251000	1.608705
7.252000	1.605806
7.253000	1.604517
7.254000	1.608383
7.255000	1.612570
7.256000	1.604839
7.257000	1.592600
7.258000	1.584225
7.259000	1.572952
7.260000	1.559102
7.261000	1.550728
7.262000	1.554915
7.263000	1.576173
7.264000	1.581971
7.265000	1.575529
7.266000	1.565544
7.267000	1.528181
7.268000	1.491140
7.269000	1.489530
7.270000	1.514331
7.271000	1.551694
7.272000	1.586480
7.273000	1.579716
7.274000	1.555881
7.275000	1.547829
7.276000	1.542997
7.277000	1.522705
7.278000	1.526248
7.279000	1.540743
7.280000	1.568765
7.281000	1.611281
7.282000	1.621910
7.283000	1.615791
7.284000	1.623521
7.285000	1.638015
7.286000	1.641558
7.287000	1.647034
7.288000	1.650899
7.289000	1.658307
7.290000	1.637693
7.291000	1.626420
7.292000	1.608060
7.293000	1.593244
7.294000	1.567154
7.295000	1.547185
7.296000	1.533334
7.297000	1.506601
7.298000	1.483732
7.299000	1.480833
7.300000	1.511110
7.301000	1.537844
7.302000	1.571664
7.303000	1.623843
7.304000	1.641558
7.305000	1.593566
7.306000	1.557492
7.307000	1.544930
7.308000	1.552338
7.309000	1.572308
7.310000	1.581327
7.311000	1.596465
7.312000	1.640914
7.313000	1.648966
7.314000	1.648322
7.315000	1.652832
7.316000	1.652832
7.317000	1.646712
7.318000	1.642202
7.319000	1.634150
7.320000	1.625131
7.321000	1.585836
7.322000	1.556203
7.323000	1.527859
7.324000	1.535589
7.325000	1.546862
7.326000	1.555881
7.327000	1.574240
7.328000	1.573918
7.329000	1.601941
7.330000	1.615469
7.331000	1.603551
7.332000	1.592922
7.333000	1.585836
7.334000	1.575207
7.335000	1.577139
7.336000	1.553304
7.337000	1.528825
7.338000	1.516586
7.339000	1.514009
7.340000	1.520129
7.341000	1.529469
7.342000	1.547507
7.343000	1.569087
7.344000	1.575207
7.345000	1.588091
7.346000	1.607738
7.347000	1.621266
7.348000	1.631895
7.349000	1.634472
7.350000	1.615469
7.351000	1.600974
7.352000	1.578428
7.353000	1.564256
7.354000	1.557492
7.355000	1.559424
7.356000	1.562001
7.357000	1.575207
7.358000	1.592922
7.359000	1.598398
7.360000	1.589701
7.361000	1.586480
7.362000	1.571342
7.363000	1.581004
7.364000	1.593244
7.365000	1.611603
7.366000	1.618045
7.367000	1.603873
7.368000	1.590667
7.369000	1.584225
7.370000	1.585514
7.371000	1.605484
7.372000	1.607416
7.373000	1.594210
7.374000	1.591634
7.375000	1.601619
7.376000	1.605484
7.377000	1.601941
7.378000	1.598398
7.379000	1.593888
7.380000	1.586480
7.381000	1.587446
7.382000	1.593244
7.383000	1.574563
7.384000	1.547507
7.385000	1.532368
7.386000	1.538166
7.387000	1.555559
7.388000	1.578106
7.389000	1.604517
7.390000	1.626742
7.391000	1.629963
7.392000	1.622555
7.393000	1.600974
7.394000	1.557169
7.395000	1.524316
7.396000	1.506923
7.397000	1.474069
7.398000	1.479545
7.399000	1.497260
7.400000	1.524960
7.401000	1.560390
7.402000	1.605162
7.403000	1.641558
7.404000	1.653476
7.405000	1.666360
7.406000	1.654120
7.407000	1.642847
7.408000	1.620944
7.409000	1.580038
7.410000	1.567799
7.411000	1.559746
7.412000	1.567477
7.413000	1.578428
7.414000	1.605162
7.415000	1.608705
7.416000	1.577784
7.417000	1.556847
7.418000	1.542031
7.419000	1.520773
7.420000	1.503380
7.421000	1.498548
7.422000	1.520451
7.423000	1.558458
7.424000	1.584225
7.425000	1.624165
7.426000	1.652187
7.427000	1.661850
7.428000	1.659596
7.429000	1.619012
7.430000	1.592600
7.431000	1.592600
7.432000	1.585836
7.433000	1.571664
7.434000	1.559102
7.435000	1.561035
7.436000	1.563289
7.437000	1.572308
7.438000	1.576495
7.439000	1.581004
7.440000	1.581971
7.441000	1.584225
7.442000	1.595499
7.443000	1.633828
7.444000	1.620300
7.445000	1.546218
7.446000	1.485020
7.447000	1.461830
7.448000	1.468916
7.449000	1.484698
7.450000	1.508211
7.451000	1.537844
7.452000	1.559102
7.453000	1.572308
7.454000	1.573918
7.455000	1.593566
7.456000	1.616113
7.457000	1.638981
7.458000	1.683753
7.459000	1.686651
7.460000	1.678277
7.461000	1.672157
7.462000	1.672157
7.463000	1.663461
7.464000	1.649289
7.465000	1.638015
7.466000	1.633184
7.467000	1.636727
7.468000	1.628352
7.469000	1.614180
7.470000	1.592922
7.471000	1.574563
7.472000	1.576173
7.473000	1.585192
7.474000	1.584225
7.475000	1.582293
7.476000	1.567154
7.477000	1.550728
7.478000	1.555559
7.479000	1.553304
7.480000	1.551694
7.481000	1.525926
7.482000	1.499837
7.483000	1.495327
7.484000	1.501769
7.485000	1.523994
7.486000	1.520129
7.487000	1.530758
7.488000	1.544930
7.489000	1.579716
7.490000	1.609027
7.491000	1.643813
7.492000	1.640270
7.493000	1.634472
7.494000	1.616113
7.495000	1.611926
7.496000	1.617723
7.497000	1.630285
7.498000	1.612892
7.499000	1.597431
7.500000	1.587768
7.501000	1.530114
7.502000	1.464084
7.503000	1.419957
7.504000	1.396766
7.505000	1.410616
7.506000	1.448946
7.507000	1.502736
7.508000	1.559746
7.509000	1.624809
7.510000	1.677633
7.511000	1.724337
7.512000	1.751070
7.513000	1.715318
7.514000	1.667970
7.515000	1.628997
7.516000	1.610637
7.517000	1.602907
7.518000	1.597109
7.519000	1.596143
7.520000	1.605484
7.521000	1.605484
7.522000	1.605162
7.523000	1.587768
7.524000	1.557169
7.525000	1.557492
7.526000	1.561035
7.527000	1.555237
7.528000	1.573274
7.529000	1.571986
7.530000	1.552982
7.531000	1.526571
7.532000	1.522705
7.533000	1.539454
7.534000	1.571020
7.535000	1.602907
7.536000	1.627708
7.537000	1.655086
7.538000	1.661528
7.539000	1.646390
7.540000	1.621910
7.541000	1.589379
7.542000	1.561679
7.543000	1.546862
7.544000	1.533012
7.545000	1.532368
7.546000	1.549439
7.547000	1.568765
7.548000	1.564900
7.549000	1.575529
7.550000	1.600974
7.551000	1.639304
7.552000	1.648644
7.553000	1.628997
7.554000	1.613858
7.555000	1.606450
7.556000	1.612892
7.557000	1.612248
7.558000	1.606450
7.559000	1.596787
7.560000	1.594855
7.561000	1.582937
7.562000	1.574563
7.563000	1.545252
7.564000	1.520451
7.565000	1.484054
7.566000	1.465373
7.567000	1.468271
7.568000	1.469560
7.569000	1.461830
7.570000	1.466339
7.571000	1.521417
7.572000	1.555237
7.573000	1.594210
7.574000	1.636083
7.575000	1.655730
7.576000	1.645423
7.577000	1.644135
7.578000	1.637693
7.579000	1.653154
7.580000	1.661850
7.581000	1.648966
7.582000	1.614502
7.583000	1.577139
7.584000	1.552338
7.585000	1.539132
7.586000	1.535911
7.587000	1.550083
7.588000	1.563289
7.589000	1.598720
7.590000	1.626742
7.591000	1.639948
7.592000	1.648322
7.593000	1.635438
7.594000	1.601619
7.595000	1.574885
7.596000	1.558780
7.597000	1.551050
7.598000	1.563611
7.599000	1.592922
7.600000	1.626098
7.601000	1.664427
7.602000	1.698891
7.603000	1.700502
7.604000	1.660562
7.605000	1.612892
7.606000	1.575851
7.607000	1.571020
7.608000	1.576173
7.609000	1.571664
7.610000	1.551372
7.611000	1.543964
7.612000	1.543319
7.613000	1.542675
7.614000	1.542675
7.615000	1.542997
7.616000	1.564578
7.617000	1.585514
7.618000	1.607738
7.619000	1.607416
7.620000	1.601296
7.621000	1.608383
7.622000	1.608060
7.623000	1.606128
7.624000	1.595821
7.625000	1.560713
7.626000	1.476968
7.627000	1.394190
7.628000	1.363913
7.629000	1.379051
7.630000	1.424789
7.631000	1.479867
7.632000	1.536878
7.633000	1.624487
7.634000	1.699213
7.635000	1.714352
7.636000	1.709842
7.637000	1.687618
7.638000	1.654442
7.639000	1.627708
7.640000	1.611281
7.641000	1.625454
7.642000	1.623843
7.643000	1.614824
7.644000	1.591312
7.645000	1.583259
7.646000	1.580682
7.647000	1.585514
7.648000	1.605806
7.649000	1.617079
7.650000	1.610637
7.651000	1.567799
7.652000	1.519162
7.653000	1.489852
7.654000	1.485342
7.655000	1.490174
7.656000	1.485987
7.657000	1.504024
7.658000	1.520773
7.659000	1.542675
7.660000	1.577461
7.661000	1.637371
7.662000	1.644135
7.663000	1.633184
7.664000	1.643491
7.665000	1.655086
7.666000	1.638015
7.667000	1.626098
7.668000	1.634150
7.669000	1.642847
7.670000	1.648000
7.671000	1.645101
7.672000	1.629641
7.673000	1.591956
7.674000	1.553626
7.675000	1.532368
7.676000	1.519484
7.677000	1.506279
7.678000	1.507567
7.679000	1.513687
7.680000	1.531402
7.681000	1.572952
7.682000	1.648000
7.683000	1.701468
7.684000	1.701146
7.685000	1.682142
7.686000	1.665715
7.687000	1.651543
7.688000	1.628030
7.689000	1.611281
7.690000	1.598398
7.691000	1.589379
7.692000	1.576173
7.693000	1.561357
7.694000	1.527537
7.695000	1.477612
7.696000	1.436062
7.697000	1.416414
7.698000	1.418025
7.699000	1.446369
7.700000	1.487597
7.701000	1.547185
7.702000	1.614180
7.703000	1.641558
7.704000	1.686651
7.705000	1.709198
7.706000	1.718539
7.707000	1.710486
7.708000	1.676344
7.709000	1.646712
7.710000	1.622555
7.711000	1.605484
7.712000	1.590345
7.713000	1.584548
7.714000	1.584870
7.715000	1.567154
7.716000	1.527537
7.717000	1.510788
7.718000	1.514975
7.719000	1.531080
7.720000	1.553949
7.721000	1.565544
7.722000	1.582615
7.723000	1.585514
7.724000	1.553949
7.725000	1.490496
7.726000	1.449268
7.727000	1.420279
7.728000	1.426721
7.729000	1.482444
7.730000	1.526893
7.731000	1.590989
7.732000	1.651865
7.733000	1.673446
7.734000	1.702756
7.735000	1.724981
7.736000	1.717895
7.737000	1.707266
7.738000	1.686651
7.739000	1.654764
7.740000	1.626420
7.741000	1.622233
7.742000	1.619334
7.743000	1.617401
7.744000	1.623521
7.745000	1.614824
7.746000	1.612892
7.747000	1.600974
7.748000	1.574563
7.749000	1.528825
7.750000	1.500481
7.751000	1.499515
7.752000	1.500481
7.753000	1.515619
7.754000	1.523672
7.755000	1.536555
7.756000	1.527215
7.757000	1.512398
7.758000	1.496616
7.759000	1.506923
7.760000	1.529469
7.761000	1.564256
7.762000	1.592922
7.763000	1.604517
7.764000	1.630607
7.765000	1.635761
7.766000	1.629319
7.767000	1.625454
7.768000	1.618690
7.769000	1.632862
7.770000	1.663139
7.771000	1.661850
7.772000	1.634150
7.773000	1.613214
7.774000	1.606772
7.775000	1.604195
7.776000	1.591634
7.777000	1.561679
7.778000	1.542353
7.779000	1.529469
7.780000	1.517874
7.781000	1.509822
7.782000	1.514653
7.783000	1.536233
7.784000	1.558458
7.785000	1.587768
7.786000	1.607738
7.787000	1.632862
7.788000	1.639626
7.789000	1.629319
7.790000	1.596787
7.791000	1.551694
7.792000	1.531724
7.793000	1.537522
7.794000	1.547185
7.795000	1.552016
7.796000	1.565222
7.797000	1.587768
7.798000	1.597109
7.799000	1.603551
7.800000	1.586802
7.801000	1.582937
7.802000	1.604195
7.803000	1.617401
7.804000	1.620300
7.805000	1.627064
7.806000	1.625454
7.807000	1.627708
7.808000	1.618690
7.809000	1.609349
7.810000	1.598398
7.811000	1.582615
7.812000	1.576817
7.813000	1.573274
7.814000	1.570053
7.815000	1.566188
7.816000	1.562645
7.817000	1.555881
7.818000	1.561679
7.819000	1.556203
7.820000	1.522061
7.821000	1.464728
7.822000	1.430586
7.823000	1.435418
7.824000	1.468593
7.825000	1.490174
7.826000	1.507567
7.827000	1.545574
7.828000	1.595821
7.829000	1.627386
7.830000	1.611603
7.831000	1.587446
7.832000	1.589057
7.833000	1.598720
7.834000	1.573918
7.835000	1.571020
7.836000	1.605162
7.837000	1.651543
7.838000	1.672479
7.839000	1.678277
7.840000	1.684719
7.841000	1.663461
7.842000	1.646390
7.843000	1.628997
7.844000	1.622555
7.845000	1.615791
7.846000	1.603551
7.847000	1.587768
7.848000	1.576495
7.849000	1.571020
7.850000	1.578106
7.851000	1.576817
7.852000	1.562001
7.853000	1.566510
7.854000	1.582293
7.855000	1.599364
7.856000	1.600652
7.857000	1.615147
7.858000	1.606128
7.859000	1.575529
7.860000	1.545896
7.861000	1.512076
7.862000	1.487597
7.863000	1.483732
7.864000	1.482444
7.865000	1.514331
7.866000	1.557492
7.867000	1.591956
7.868000	1.607094
7.869000	1.621588
7.870000	1.641880
7.871000	1.671835
7.872000	1.651543
7.873000	1.616113
7.874000	1.600008
7.875000	1.594855
7.876000	1.577139
7.877000	1.559746
7.878000	1.546218
7.879000	1.554915
7.880000	1.548473
7.881000	1.539454
7.882000	1.534945
7.883000	1.557169
7.884000	1.565222
7.885000	1.566510
7.886000	1.573918
7.887000	1.598398
7.888000	1.621266
7.889000	1.615469
7.890000	1.593566
7.891000	1.568765
7.892000	1.566832
7.893000	1.571664
7.894000	1.579072
7.895000	1.603229
7.896000	1.614824
7.897000	1.587446
7.898000	1.508533
7.899000	1.468916
7.900000	1.468916
7.901000	1.487275
7.902000	1.522383
7.903000	1.568443
7.904000	1.601941
7.905000	1.617079
7.906000	1.647356
7.907000	1.681498
7.908000	1.683108
7.909000	1.654120
7.910000	1.638981
7.911000	1.636727
7.912000	1.620944
7.913000	1.612892
7.914000	1.603229
7.915000	1.595177
7.916000	1.587768
7.917000	1.580682
7.918000	1.570697
7.919000	1.571664
7.920000	1.575851
7.921000	1.557492
7.922000	1.495005
7.923000	1.448946
7.924000	1.453455
7.925000	1.477612
7.926000	1.516908
7.927000	1.553304
7.928000	1.609993
7.929000	1.658629
7.930000	1.697281
7.931000	1.674734
7.932000	1.640914
7.933000	1.635438
7.934000	1.614502
7.935000	1.596787
7.936000	1.632540
7.937000	1.664427
7.938000	1.656375
7.939000	1.639626
7.940000	1.619012
7.941000	1.607416
7.942000	1.597109
7.943000	1.580038
7.944000	1.564256
7.945000	1.561035
7.946000	1.534945
7.947000	1.500803
7.948000	1.482766
7.949000	1.493717
7.950000	1.519162
7.951000	1.555881
7.952000	1.568121
7.953000	1.586480
7.954000	1.603229
7.955000	1.604839
7.956000	1.611281
7.957000	1.602907
7.958000	1.593888
7.959000	1.591312
7.960000	1.582293
7.961000	1.585836
7.962000	1.581327
7.963000	1.596787
7.964000	1.606128
7.965000	1.609993
7.966000	1.609027
7.967000	1.612892
7.968000	1.601941
7.969000	1.600652
7.970000	1.594210
7.971000	1.582615
7.972000	1.575529
7.973000	1.569087
7.974000	1.566188
7.975000	1.564900
7.976000	1.565222
7.977000	1.555559
7.978000	1.531080
7.979000	1.508533
7.980000	1.486309
7.981000	1.468593
7.982000	1.460863
7.983000	1.465695
7.984000	1.497582
7.985000	1.568443
7.986000	1.614824
7.987000	1.628030
7.988000	1.631895
7.989000	1.607416
7.990000	1.580038
7.991000	1.563933
7.992000	1.567799
7.993000	1.583259
7.994000	1.590989
7.995000	1.590345
7.996000	1.590989
7.997000	1.610315
7.998000	1.626742
7.999000	1.629641
8.000000	1.634472
8.001000	1.633828
8.002000	1.613858
8.003000	1.576495
8.004000	1.542031
8.005000	1.532046
8.006000	1.527537
8.007000	1.484376
8.008000	1.432519
8.009000	1.431231
8.010000	1.467627
8.011000	1.494039
8.012000	1.538488
8.013000	1.600652
8.014000	1.653154
8.015000	1.696636
8.016000	1.701468
8.017000	1.697603
8.018000	1.685363
8.019000	1.663783
8.020000	1.632218
8.021000	1.614824
8.022000	1.633184
8.023000	1.629641
8.024000	1.621266
8.025000	1.616113
8.026000	1.613858
8.027000	1.581649
8.028000	1.535911
8.029000	1.501769
8.030000	1.496294
8.031000	1.508533
8.032000	1.531402
8.033000	1.566188
8.034000	1.605162
8.035000	1.621588
8.036000	1.637371
8.037000	1.637693
8.038000	1.623199
8.039000	1.620300
8.040000	1.634794
8.041000	1.619012
8.042000	1.598075
8.043000	1.594210
8.044000	1.592922
8.045000	1.590023
8.046000	1.590023
8.047000	1.576495
8.048000	1.558780
8.049000	1.533657
8.050000	1.520129
8.051000	1.531402
8.052000	1.552016
8.053000	1.573596
8.054000	1.595177
8.055000	1.618690
8.056000	1.629319
8.057000	1.617723
8.058000	1.620622
8.059000	1.599686
8.060000	1.590667
8.061000	1.573274
8.062000	1.570697
8.063000	1.561357
8.064000	1.547507
8.065000	1.535589
8.066000	1.535911
8.067000	1.531402
8.068000	1.544930
8.069000	1.558136
8.070000	1.578106
8.071000	1.586802
8.072000	1.596465
8.073000	1.599364
8.074000	1.597431
8.075000	1.613214
8.076000	1.629963
8.077000	1.629319
8.078000	1.641236
8.079000	1.598075
8.080000	1.554593
8.081000	1.532690
8.082000	1.516908
8.083000	1.519162
8.084000	1.537200
8.085000	1.544930
8.086000	1.552660
8.087000	1.574563
8.088000	1.587124
8.089000	1.565222
8.090000	1.526571
8.091000	1.509177
8.092000	1.488885
8.093000	1.468271
8.094000	1.475680
8.095000	1.495005
8.096000	1.543964
8.097000	1.593888
8.098000	1.633184
8.099000	1.652187
8.100000	1.634472
8.101000	1.622233
8.102000	1.613858
8.103000	1.591312
8.104000	1.573596
8.105000	1.558136
8.106000	1.554915
8.107000	1.560068
8.108000	1.563611
8.109000	1.561357
8.110000	1.576173
8.111000	1.599364
8.112000	1.597431
8.113000	1.587768
8.114000	1.580360
8.115000	1.578428
8.116000	1.578106
8.117000	1.593888
8.118000	1.616757
8.119000	1.642847
8.120000	1.652187
8.121000	1.639948
8.122000	1.631895
8.123000	1.624487
8.124000	1.626420
8.125000	1.617079
8.126000	1.604195
8.127000	1.611281
8.128000	1.602263
8.129000	1.589379
8.130000	1.576817
8.131000	1.535589
8.132000	1.486631
8.133000	1.453455
8.134000	1.467949
8.135000	1.475680
8.136000	1.505634
8.137000	1.552016
8.138000	1.595499
8.139000	1.634794
8.140000	1.653798
8.141000	1.634150
8.142000	1.657019
8.143000	1.688906
8.144000	1.662816
8.145000	1.632218
8.146000	1.609349
8.147000	1.588091
8.148000	1.571664
8.149000	1.583259
8.150000	1.588735
8.151000	1.587768
8.152000	1.592600
8.153000	1.590667
8.154000	1.586480
8.155000	1.595177
8.156000	1.588735
8.157000	1.590989
8.158000	1.589057
8.159000	1.588735
8.160000	1.584548
8.161000	1.540098
8.162000	1.523994
8.163000	1.513365
8.164000	1.517552
8.165000	1.521417
8.166000	1.543964
8.167000	1.539454
8.168000	1.514975
8.169000	1.498548
8.170000	1.463762
8.171000	1.457642
8.172000	1.454099
8.173000	1.479545
8.174000	1.533979
8.175000	1.614824
8.176000	1.682142
8.177000	1.728202
8.178000	1.733999
8.179000	1.711453
8.180000	1.694704
8.181000	1.682142
8.182000	1.613536
8.183000	1.571020
8.184000	1.548795
8.185000	1.550083
8.186000	1.558136
8.187000	1.582615
8.188000	1.593566
8.189000	1.589379
8.190000	1.573918
8.191000	1.560713
8.192000	1.554915
8.193000	1.561357
8.194000	1.574885
8.195000	1.610315
8.196000	1.633184
8.197000	1.642525
8.198000	1.647678
8.199000	1.649933
8.200000	1.638981
8.201000	1.624165
8.202000	1.615469
8.203000	1.603873
8.204000	1.595821
8.205000	1.584870
8.206000	1.588091
8.207000	1.601296
8.208000	1.605806
8.209000	1.599364
8.210000	1.569087
8.211000	1.537522
8.212000	1.517552
8.213000	1.499837
8.214000	1.483088
8.215000	1.478901
8.216000	1.503380
8.217000	1.531724
8.218000	1.563289
8.219000	1.593888
8.220000	1.624809
8.221000	1.629963
8.222000	1.607738
8.223000	1.599042
8.224000	1.591634
8.225000	1.569409
8.226000	1.548151
8.227000	1.552982
8.228000	1.544930
8.229000	1.545252
8.230000	1.541065
8.231000	1.531080
8.232000	1.544286
8.233000	1.560713
8.234000	1.585192
8.235000	1.618690
8.236000	1.671835
8.237000	1.713063
8.238000	1.709520
8.239000	1.657019
8.240000	1.635761
8.241000	1.620622
8.242000	1.601619
8.243000	1.587124
8.244000	1.584548
8.245000	1.581649
8.246000	1.575529
8.247000	1.573596
8.248000	1.574885
8.249000	1.578750
8.250000	1.579394
8.251000	1.587768
8.252000	1.586802
8.253000	1.582937
8.254000	1.578428
8.255000	1.568765
8.256000	1.550728
8.257000	1.498870
8.258000	1.462796
8.259000	1.458286
8.260000	1.471492
8.261000	1.489208
8.262000	1.524960
8.263000	1.551372
8.264000	1.590989
8.265000	1.628030
8.266000	1.652187
8.267000	1.650255
8.268000	1.641558
8.269000	1.647678
8.270000	1.646712
8.271000	1.636405
8.272000	1.619978
8.273000	1.607094
8.274000	1.595177
8.275000	1.585514
8.276000	1.586802
8.277000	1.571020
8.278000	1.576817
8.279000	1.569087
8.280000	1.569731
8.281000	1.566832
8.282000	1.561679
8.283000	1.565544
8.284000	1.565544
8.285000	1.571342
8.286000	1.582615
8.287000	1.596787
8.288000	1.603229
8.289000	1.595821
8.290000	1.576817
8.291000	1.559746
8.292000	1.557814
8.293000	1.536878
8.294000	1.522705
8.295000	1.516908
8.296000	1.526248
8.297000	1.530436
8.298000	1.544286
8.299000	1.561679
8.300000	1.578750
8.301000	1.589379
8.302000	1.588413
8.303000	1.559424
8.304000	1.485020
8.305000	1.427688
8.306000	1.413515
8.307000	1.421568
8.308000	1.429298
8.309000	1.458931
8.310000	1.474391
8.311000	1.492106
8.312000	1.545574
8.313000	1.572952
8.314000	1.581649
8.315000	1.621588
8.316000	1.608383
8.317000	1.607416
8.318000	1.612248
8.319000	1.628352
8.320000	1.657341
8.321000	1.675378
8.322000	1.689872
8.323000	1.706943
8.324000	1.703400
8.325000	1.672479
8.326000	1.646712
8.327000	1.600652
8.328000	1.567799
8.329000	1.569731
8.330000	1.580360
8.331000	1.587446
8.332000	1.609349
8.333000	1.628997
8.334000	1.644457
8.335000	1.663461
8.336000	1.653798
8.337000	1.639948
8.338000	1.615147
8.339000	1.576495
8.340000	1.549439
8.341000	1.537844
8.342000	1.532368
8.343000	1.528825
8.344000	1.526248
8.345000	1.533012
8.346000	1.562323
8.347000	1.581004
8.348000	1.597753
8.349000	1.604517
8.350000	1.628352
8.351000	1.640270
8.352000	1.627064
8.353000	1.618367
8.354000	1.605806
8.355000	1.610315
8.356000	1.608705
8.357000	1.597109
8.358000	1.591312
8.359000	1.581327
8.360000	1.570053
8.361000	1.563611
8.362000	1.556525
8.363000	1.556203
8.364000	1.548473
8.365000	1.547829
8.366000	1.547507
8.367000	1.542031
8.368000	1.544930
8.369000	1.561679
8.370000	1.572308
8.371000	1.583903
8.372000	1.584870
8.373000	1.591634
8.374000	1.600008
8.375000	1.602907
8.376000	1.587768
8.377000	1.557492
8.378000	1.542997
8.379000	1.534301
8.380000	1.532368
8.381000	1.533012
8.382000	1.524316
8.383000	1.512720
8.384000	1.505634
8.385000	1.490174
8.386000	1.479545
8.387000	1.459575
8.388000	1.455388
8.389000	1.420601
8.390000	1.416414
8.391000	1.450556
8.392000	1.498226
8.393000	1.554593
8.394000	1.629963
8.395000	1.695348
8.396000	1.732389
8.397000	1.724014
8.398000	1.701146
8.399000	1.661850
8.400000	1.641558
8.401000	1.607416
8.402000	1.596143
8.403000	1.589701
8.404000	1.598398
8.405000	1.627386
8.406000	1.634472
8.407000	1.625776
8.408000	1.624809
8.409000	1.621910
8.410000	1.581649
8.411000	1.550406
8.412000	1.545574
8.413000	1.551372
8.414000	1.559424
8.415000	1.590345
8.416000	1.614824
8.417000	1.637049
8.418000	1.645101
8.419000	1.644135
8.420000	1.649933
8.421000	1.606450
8.422000	1.568121
8.423000	1.545252
8.424000	1.539132
8.425000	1.535911
8.426000	1.545252
8.427000	1.558136
8.428000	1.581327
8.429000	1.598398
8.430000	1.597753
8.431000	1.593888
8.432000	1.568765
8.433000	1.555881
8.434000	1.550083
8.435000	1.542997
8.436000	1.558780
8.437000	1.570697
8.438000	1.567477
8.439000	1.571020
8.440000	1.570697
8.441000	1.569731
8.442000	1.575851
8.443000	1.574885
8.444000	1.568121
8.445000	1.566188
8.446000	1.563289
8.447000	1.567799
8.448000	1.564900
8.449000	1.567154
8.450000	1.562645
8.451000	1.554915
8.452000	1.543642
8.453000	1.508855
8.454000	1.493073
8.455000	1.496294
8.456000	1.517552
8.457000	1.536878
8.458000	1.589057
8.459000	1.654764
8.460000	1.678277
8.461000	1.644457
8.462000	1.609349
8.463000	1.584225
8.464000	1.588091
8.465000	1.591956
8.466000	1.598075
8.467000	1.611603
8.468000	1.625776
8.469000	1.634150
8.470000	1.598075
8.471000	1.551694
8.472000	1.516263
8.473000	1.479867
8.474000	1.484054
8.475000	1.522061
8.476000	1.542997
8.477000	1.557492
8.478000	1.586802
8.479000	1.614824
8.480000	1.628674
8.481000	1.607738
8.482000	1.578428
8.483000	1.566832
8.484000	1.546218
8.485000	1.540743
8.486000	1.555881
8.487000	1.574885
8.488000	1.593888
8.489000	1.618690
8.490000	1.659273
8.491000	1.661850
8.492000	1.659596
8.493000	1.648644
8.494000	1.629641
8.495000	1.605806
8.496000	1.594210
8.497000	1.588091
8.498000	1.577461
8.499000	1.551050
8.500000	1.521417
8.501000	1.503380
8.502000	1.510466
8.503000	1.501769
8.504000	1.489530
8.505000	1.485342
8.506000	1.497582
8.507000	1.498870
8.508000	1.498548
8.509000	1.497582
8.510000	1.523994
8.511000	1.553949
8.512000	1.544286
8.513000	1.555237
8.514000	1.586158
8.515000	1.604195
8.516000	1.612892
8.517000	1.629641
8.518000	1.636727
8.519000	1.654764
8.520000	1.669258
8.521000	1.652832
8.522000	1.674734
8.523000	1.691161
8.524000	1.660240
8.525000	1.634150
8.526000	1.613858
8.527000	1.586802
8.528000	1.567799
8.529000	1.569409
8.530000	1.570053
8.531000	1.572308
8.532000	1.548795
8.533000	1.550083
8.534000	1.562645
8.535000	1.574563
8.536000	1.583259
8.537000	1.591312
8.538000	1.571986
8.539000	1.542675
8.540000	1.516263
8.541000	1.506601
8.542000	1.497260
8.543000	1.513365
8.544000	1.538810
8.545000	1.568765
8.546000	1.594532
8.547000	1.604839
8.548000	1.624487
8.549000	1.612570
8.550000	1.598720
8.551000	1.582615
8.552000	1.562001
8.553000	1.547185
8.554000	1.536555
8.555000	1.542997
8.556000	1.551050
8.557000	1.555237
8.558000	1.569087
8.559000	1.574885
8.560000	1.558136
8.561000	1.550728
8.562000	1.559424
8.563000	1.546540
8.564000	1.530758
8.565000	1.532046
8.566000	1.542997
8.567000	1.558136
8.568000	1.552660
8.569000	1.564900
8.570000	1.579394
8.571000	1.591312
8.572000	1.591634
8.573000	1.596143
8.574000	1.581004
8.575000	1.583259
8.576000	1.580038
8.577000	1.576495
8.578000	1.589057
8.579000	1.593244
8.580000	1.598075
8.581000	1.614502
8.582000	1.635438
8.583000	1.657985
8.584000	1.667970
8.585000	1.674412
8.586000	1.683753
8.587000	1.668292
8.588000	1.652187
8.589000	1.635116
8.590000	1.631895
8.591000	1.612248
8.592000	1.584870
8.593000	1.553304
8.594000	1.521417
8.595000	1.512076
8.596000	1.491462
8.597000	1.487597
8.598000	1.493073
8.599000	1.511754
8.600000	1.513687
8.601000	1.492106
8.602000	1.479545
8.603000	1.491784
8.604000	1.521417
8.605000	1.542031
8.606000	1.541709
8.607000	1.561679
8.608000	1.584870
8.609000	1.611281
8.610000	1.624165
8.611000	1.621266
8.612000	1.616435
8.613000	1.609027
8.614000	1.619656
8.615000	1.631251
8.616000	1.630607
8.617000	1.619012
8.618000	1.609349
8.619000	1.614824
8.620000	1.618045
8.621000	1.613858
8.622000	1.588735
8.623000	1.571342
8.624000	1.570697
8.625000	1.557814
8.626000	1.557814
8.627000	1.572630
8.628000	1.595821
8.629000	1.609027
8.630000	1.597753
8.631000	1.604517
8.632000	1.598398
8.633000	1.593244
8.634000	1.591634
8.635000	1.581971
8.636000	1.577139
8.637000	1.566188
8.638000	1.548795
8.639000	1.540743
8.640000	1.569731
8.641000	1.573918
8.642000	1.575851
8.643000	1.587446
8.644000	1.584225
8.645000	1.572308
8.646000	1.569731
8.647000	1.571664
8.648000	1.558780
8.649000	1.562001
8.650000	1.571020
8.651000	1.574240
8.652000	1.564900
8.653000	1.537522
8.654000	1.519162
8.655000	1.508533
8.656000	1.510788
8.657000	1.520129
8.658000	1.528181
8.659000	1.506279
8.660000	1.498870
8.661000	1.518840
8.662000	1.530114
8.663000	1.517552
8.664000	1.509177
8.665000	1.535911
8.666000	1.581971
8.667000	1.594210
8.668000	1.613858
8.669000	1.648000
8.670000	1.666360
8.671000	1.676667
8.672000	1.658307
8.673000	1.641558
8.674000	1.631895
8.675000	1.625131
8.676000	1.613536
8.677000	1.604195
8.678000	1.603551
8.679000	1.601619
8.680000	1.573918
8.681000	1.533012
8.682000	1.478256
8.683000	1.455388
8.684000	1.483410
8.685000	1.525282
8.686000	1.579072
8.687000	1.601296
8.688000	1.583903
8.689000	1.599364
8.690000	1.622877
8.691000	1.648000
8.692000	1.648322
8.693000	1.646390
8.694000	1.647356
8.695000	1.649933
8.696000	1.627064
8.697000	1.590667
8.698000	1.566510
8.699000	1.554915
8.700000	1.565222
8.701000	1.572308
8.702000	1.588091
8.703000	1.604517
8.704000	1.637049
8.705000	1.665071
8.706000	1.658951
8.707000	1.642847
8.708000	1.613214
8.709000	1.591634
8.710000	1.575529
8.711000	1.558780
8.712000	1.538166
8.713000	1.536878
8.714000	1.532368
8.715000	1.553949
8.716000	1.571664
8.717000	1.569409
8.718000	1.576173
8.719000	1.583259
8.720000	1.587446
8.721000	1.598075
8.722000	1.595821
8.723000	1.591634
8.724000	1.585192
8.725000	1.571664
8.726000	1.555237
8.727000	1.541065
8.728000	1.530758
8.729000	1.524960
8.730000	1.512398
8.731000	1.496294
8.732000	1.480511
8.733000	1.503702
8.734000	1.540098
8.735000	1.570053
8.736000	1.590989
8.737000	1.587446
8.738000	1.586802
8.739000	1.567799
8.740000	1.573596
8.741000	1.567799
8.742000	1.589701
8.743000	1.592278
8.744000	1.594210
8.745000	1.613858
8.746000	1.620944
8.747000	1.624487
8.748000	1.620622
8.749000	1.604839
8.750000	1.595177
8.751000	1.591634
8.752000	1.595821
8.753000	1.598720
8.754000	1.596465
8.755000	1.578428
8.756000	1.535911
8.757000	1.484698
8.758000	1.448302
8.759000	1.428332
8.760000	1.407396
8.761000	1.406429
8.762000	1.417380
8.763000	1.474713
8.764000	1.513687
8.765000	1.533012
8.766000	1.560713
8.767000	1.614824
8.768000	1.666360
8.769000	1.724014
8.770000	1.749782
8.771000	1.766853
8.772000	1.746561
8.773000	1.702434
8.774000	1.671513
8.775000	1.659596
8.776000	1.664427
8.777000	1.672479
8.778000	1.643813
8.779000	1.554271
8.780000	1.465695
8.781000	1.418347
8.782000	1.426399
8.783000	1.454099
8.784000	1.525282
8.785000	1.604839
8.786000	1.674412
8.787000	1.701790
8.788000	1.699857
8.789000	1.688906
8.790000	1.672801
8.791000	1.650899
8.792000	1.629963
8.793000	1.624809
8.794000	1.615791
8.795000	1.600974
8.796000	1.579394
8.797000	1.571986
8.798000	1.565222
8.799000	1.561035
8.800000	1.558458
8.801000	1.555559
8.802000	1.549117
8.803000	1.548473
8.804000	1.565544
8.805000	1.588735
8.806000	1.593566
8.807000	1.579072
8.808000	1.561035
8.809000	1.549117
8.810000	1.556203
8.811000	1.565866
8.812000	1.578106
8.813000	1.580682
8.814000	1.579072
8.815000	1.576173
8.816000	1.577139
8.817000	1.587124
8.818000	1.595499
8.819000	1.605162
8.820000	1.625454
8.821000	1.630929
8.822000	1.615469
8.823000	1.603873
8.824000	1.606772
8.825000	1.600008
8.826000	1.586158
8.827000	1.563289
8.828000	1.533334
8.829000	1.524960
8.830000	1.526248
8.831000	1.524638
8.832000	1.529791
8.833000	1.551694
8.834000	1.552016
8.835000	1.526248
8.836000	1.514653
8.837000	1.552660
8.838000	1.572308
8.839000	1.597109
8.840000	1.595177
8.841000	1.607416
8.842000	1.641236
8.843000	1.659918
8.844000	1.645101
8.845000	1.606128
8.846000	1.586802
8.847000	1.577139
8.848000	1.575207
8.849000	1.583581
8.850000	1.578428
8.851000	1.594532
8.852000	1.591634
8.853000	1.573274
8.854000	1.537844
8.855000	1.520773
8.856000	1.526571
8.857000	1.539132
8.858000	1.543964
8.859000	1.546540
8.860000	1.549439
8.861000	1.558780
8.862000	1.550083
8.863000	1.541387
8.864000	1.536233
8.865000	1.538166
8.866000	1.529791
8.867000	1.533979
8.868000	1.553626
8.869000	1.561357
8.870000	1.591312
8.871000	1.606128
8.872000	1.595821
8.873000	1.578750
8.874000	1.589701
8.875000	1.595499
8.876000	1.594855
8.877000	1.599042
8.878000	1.618045
8.879000	1.627708
8.880000	1.638981
8.881000	1.656053
8.882000	1.662172
8.883000	1.648000
8.884000	1.610637
8.885000	1.587124
8.886000	1.540098
8.887000	1.500159
8.888000	1.456676
8.889000	1.442504
8.890000	1.466339
8.891000	1.500803
8.892000	1.537200
8.893000	1.584548
8.894000	1.625776
8.895000	1.665071
8.896000	1.638337
8.897000	1.595499
8.898000	1.566510
8.899000	1.574885
8.900000	1.596465
8.901000	1.595499
8.902000	1.583581
8.903000	1.591634
8.904000	1.600652
8.905000	1.611281
8.906000	1.634472
8.907000	1.667004
8.908000	1.667326
8.909000	1.601296
8.910000	1.569731
8.911000	1.555237
8.912000	1.565222
8.913000	1.565866
8.914000	1.581004
8.915000	1.578106
8.916000	1.588413
8.917000	1.613214
8.918000	1.621910
8.919000	1.627386
8.920000	1.616757
8.921000	1.607738
8.922000	1.594210
8.923000	1.602907
8.924000	1.608060
8.925000	1.598075
8.926000	1.599686
8.927000	1.601619
8.928000	1.597109
8.929000	1.577139
8.930000	1.550728
8.931000	1.507567
8.932000	1.470204
8.933000	1.455710
8.934000	1.455710
8.935000	1.468271
8.936000	1.494039
8.937000	1.538488
8.938000	1.593566
8.939000	1.650899
8.940000	1.678599
8.941000	1.672801
8.942000	1.647034
8.943000	1.617401
8.944000	1.592278
8.945000	1.582615
8.946000	1.567154
8.947000	1.561035
8.948000	1.594532
8.949000	1.638659
8.950000	1.627386
8.951000	1.597109
8.952000	1.577784
8.953000	1.572308
8.954000	1.561679
8.955000	1.552660
8.956000	1.557169
8.957000	1.542675
8.958000	1.540421
8.959000	1.501447
8.960000	1.462796
8.961000	1.476002
8.962000	1.499192
8.963000	1.527215
8.964000	1.576173
8.965000	1.612248
8.966000	1.643169
8.967000	1.642202
8.968000	1.643169
8.969000	1.634150
8.970000	1.639948
8.971000	1.641236
8.972000	1.640914
8.973000	1.642525
8.974000	1.627386
8.975000	1.607738
8.976000	1.573918
8.977000	1.541065
8.978000	1.514975
8.979000	1.517230
8.980000	1.533012
8.981000	1.564900
8.982000	1.603873
8.983000	1.635438
8.984000	1.650899
8.985000	1.644457
8.986000	1.626742
8.987000	1.611926
8.988000	1.599364
8.989000	1.584225
8.990000	1.583903
8.991000	1.598075
8.992000	1.607416
8.993000	1.601619
8.994000	1.610637
8.995000	1.611281
8.996000	1.592600
8.997000	1.566832
8.998000	1.550083
8.999000	1.541709
9.000000	1.534623
9.001000	1.536555
9.002000	1.541709
9.003000	1.546540
9.004000	1.551050
9.005000	1.554915
9.006000	1.559424
9.007000	1.558458
9.008000	1.570375
9.009000	1.568443
9.010000	1.548151
9.011000	1.529147
9.012000	1.535589
9.013000	1.540743
9.014000	1.548151
9.015000	1.555237
9.016000	1.575851
9.017000	1.592922
9.018000	1.568765
9.019000	1.537844
9.020000	1.535589
9.021000	1.562645
9.022000	1.587768
9.023000	1.617723
9.024000	1.654120
9.025000	1.670869
9.026000	1.662816
9.027000	1.650899
9.028000	1.641236
9.029000	1.609349
9.030000	1.575207
9.031000	1.557814
9.032000	1.534623
9.033000	1.509177
9.034000	1.500481
9.035000	1.503380
9.036000	1.520129
9.037000	1.524960
9.038000	1.532046
9.039000	1.540098
9.040000	1.547185
9.041000	1.552982
9.042000	1.554915
9.043000	1.530758
9.044000	1.528825
9.045000	1.565866
9.046000	1.603873
9.047000	1.606128
9.048000	1.617079
9.049000	1.641880
9.050000	1.660240
9.051000	1.661206
9.052000	1.660240
9.053000	1.671513
9.054000	1.664427
9.055000	1.643169
9.056000	1.618367
9.057000	1.604839
9.058000	1.593888
9.059000	1.571020
9.060000	1.534623
9.061000	1.488241
9.062000	1.476968
9.063000	1.507889
9.064000	1.525282
9.065000	1.528181
9.066000	1.559102
9.067000	1.594210
9.068000	1.613858
9.069000	1.641236
9.070000	1.675378
9.071000	1.688906
9.072000	1.685685
9.073000	1.663139
9.074000	1.646068
9.075000	1.622233
9.076000	1.604839
9.077000	1.576817
9.078000	1.564900
9.079000	1.567477
9.080000	1.580682
9.081000	1.600008
9.082000	1.616757
9.083000	1.612570
9.084000	1.597431
9.085000	1.577784
9.086000	1.544608
9.087000	1.527215
9.088000	1.516908
9.089000	1.511432
9.090000	1.509177
9.091000	1.520451
9.092000	1.529147
9.093000	1.544930
9.094000	1.552338
9.095000	1.534945
9.096000	1.525604
9.097000	1.529469
9.098000	1.523672
9.099000	1.534945
9.100000	1.529147
9.101000	1.524316
9.102000	1.533979
9.103000	1.546540
9.104000	1.550728
9.105000	1.549439
9.106000	1.554271
9.107000	1.564578
9.108000	1.591956
9.109000	1.602585
9.110000	1.589701
9.111000	1.582615
9.112000	1.575851
9.113000	1.563611
9.114000	1.570375
9.115000	1.568121
9.116000	1.552338
9.117000	1.552660
9.118000	1.562323
9.119000	1.584225
9.120000	1.602585
9.121000	1.626098
9.122000	1.659273
9.123000	1.698247
9.124000	1.717250
9.125000	1.694060
9.126000	1.668292
9.127000	1.642847
9.128000	1.615791
9.129000	1.595499
9.130000	1.566510
9.131000	1.541065
9.132000	1.532368
9.133000	1.523027
9.134000	1.537522
9.135000	1.544930
9.136000	1.554915
9.137000	1.562001
9.138000	1.572630
9.139000	1.606128
9.140000	1.612248
9.141000	1.618367
9.142000	1.624165
9.143000	1.645101
9.144000	1.642202
9.145000	1.637049
9.146000	1.643491
9.147000	1.636405
9.148000	1.620300
9.149000	1.607416
9.150000	1.571986
9.151000	1.539132
9.152000	1.496616
9.153000	1.424789
9.154000	1.394512
9.155000	1.409006
9.156000	1.460863
9.157000	1.544286
9.158000	1.600008
9.159000	1.660884
9.160000	1.690517
9.161000	1.693415
9.162000	1.693093
9.163000	1.666682
9.164000	1.625776
9.165000	1.585836
9.166000	1.546862
9.167000	1.533979
9.168000	1.538166
9.169000	1.551372
9.170000	1.577461
9.171000	1.606772
9.172000	1.637693
9.173000	1.668292
9.174000	1.660562
9.175000	1.642202
9.176000	1.623521
9.177000	1.590345
9.178000	1.563933
9.179000	1.550728
9.180000	1.549761
9.181000	1.548795
9.182000	1.547829
9.183000	1.546540
9.184000	1.564900
9.185000	1.580038
9.186000	1.605484
9.187000	1.612570
9.188000	1.601296
9.189000	1.599364
9.190000	1.594855
9.191000	1.592278
9.192000	1.598720
9.193000	1.589379
9.194000	1.571342
9.195000	1.565544
9.196000	1.565222
9.197000	1.577139
9.198000	1.579394
9.199000	1.586480
9.200000	1.588735
9.201000	1.596465
9.202000	1.589701
9.203000	1.579394
9.204000	1.594855
9.205000	1.583903
9.206000	1.577461
9.207000	1.577784
9.208000	1.576495
9.209000	1.592278
9.210000	1.604195
9.211000	1.600008
9.212000	1.588413
9.213000	1.569087
9.214000	1.561035
9.215000	1.549761
9.216000	1.557814
9.217000	1.542675
9.218000	1.522383
9.219000	1.527537
9.220000	1.542031
9.221000	1.552660
9.222000	1.566832
9.223000	1.574885
9.224000	1.600974
9.225000	1.619978
9.226000	1.603229
9.227000	1.573274
9.228000	1.529469
9.229000	1.502413
9.230000	1.501769
9.231000	1.512720
9.232000	1.483732
9.233000	1.453455
9.234000	1.440571
9.235000	1.455066
9.236000	1.504990
9.237000	1.551372
9.238000	1.590345
9.239000	1.633506
9.240000	1.659596
9.241000	1.684397
9.242000	1.687296
9.243000	1.685685
9.244000	1.693738
9.245000	1.668614
9.246000	1.649289
9.247000	1.640914
9.248000	1.609993
9.249000	1.580360
9.250000	1.565544
9.251000	1.571664
9.252000	1.580682
9.253000	1.595177
9.254000	1.605806
9.255000	1.606772
9.256000	1.618690
9.257000	1.626742
9.258000	1.640270
9.259000	1.643813
9.260000	1.628030
9.261000	1.611603
9.262000	1.594532
9.263000	1.571020
9.264000	1.546540
9.265000	1.535911
9.266000	1.549439
9.267000	1.572630
9.268000	1.583581
9.269000	1.592600
9.270000	1.595821
9.271000	1.569731
9.272000	1.555881
9.273000	1.609349
9.274000	1.637371
9.275000	1.628352
9.276000	1.612248
9.277000	1.602585
9.278000	1.594855
9.279000	1.600652
9.280000	1.590989
9.281000	1.586480
9.282000	1.577784
9.283000	1.570375
9.284000	1.571664
9.285000	1.572952
9.286000	1.542675
9.287000	1.449268
9.288000	1.376797
9.289000	1.349419
9.290000	1.374542
9.291000	1.418669
9.292000	1.483088
9.293000	1.568443
9.294000	1.656053
9.295000	1.713707
9.296000	1.716606
9.297000	1.714030
9.298000	1.683108
9.299000	1.672801
9.300000	1.658629
9.301000	1.640270
9.302000	1.623521
9.303000	1.613536
9.304000	1.615791
9.305000	1.622877
9.306000	1.623199
9.307000	1.602907
9.308000	1.568443
9.309000	1.533012
9.310000	1.510466
9.311000	1.512398
9.312000	1.518840
9.313000	1.536555
9.314000	1.566510
9.315000	1.600330
9.316000	1.634794
9.317000	1.653798
9.318000	1.643169
9.319000	1.614502
9.320000	1.601619
9.321000	1.582937
9.322000	1.577784
9.323000	1.576495
9.324000	1.587124
9.325000	1.593888
9.326000	1.601296
9.327000	1.602263
9.328000	1.597109
9.329000	1.584870
9.330000	1.559102
9.331000	1.544286
9.332000	1.530436
9.333000	1.536878
9.334000	1.542353
9.335000	1.559102
9.336000	1.583259
9.337000	1.602907
9.338000	1.601296
9.339000	1.609349
9.340000	1.628030
9.341000	1.639626
9.342000	1.627064
9.343000	1.617079
9.344000	1.604839
9.345000	1.595821
9.346000	1.568443
9.347000	1.527859
9.348000	1.493073
9.349000	1.458286
9.350000	1.437028
9.351000	1.418991
9.352000	1.412549
9.353000	1.445725
9.354000	1.511432
9.355000	1.585192
9.356000	1.657985
9.357000	1.708554
9.358000	1.719183
9.359000	1.738509
9.360000	1.744629
9.361000	1.683431
9.362000	1.640592
9.363000	1.626742
9.364000	1.613858
9.365000	1.607738
9.366000	1.601941
9.367000	1.600974
9.368000	1.605162
9.369000	1.616757
9.370000	1.627064
9.371000	1.616435
9.372000	1.609993
9.373000	1.575851
9.374000	1.511432
9.375000	1.427688
9.376000	1.380662
9.377000	1.384849
9.378000	1.424789
9.379000	1.479867
9.380000	1.553949
9.381000	1.603229
9.382000	1.679243
9.383000	1.718539
9.384000	1.719183
9.385000	1.696314
9.386000	1.681820
9.387000	1.664105
9.388000	1.644457
9.389000	1.622233
9.390000	1.610637
9.391000	1.603551
9.392000	1.601941
9.393000	1.597109
9.394000	1.589701
9.395000	1.585192
9.396000	1.563933
9.397000	1.556847
9.398000	1.531402
9.399000	1.511432
9.400000	1.502091
9.401000	1.514009
9.402000	1.533979
9.403000	1.555881
9.404000	1.576817
9.405000	1.591956
9.406000	1.608383
9.407000	1.612892
9.408000	1.601941
9.409000	1.585836
9.410000	1.584870
9.411000	1.596787
9.412000	1.595821
9.413000	1.600330
9.414000	1.600008
9.415000	1.602907
9.416000	1.589057
9.417000	1.600008
9.418000	1.611926
9.419000	1.594210
9.420000	1.585836
9.421000	1.571342
9.422000	1.569087
9.423000	1.567799
9.424000	1.557814
9.425000	1.555881
9.426000	1.567477
9.427000	1.580038
9.428000	1.603551
9.429000	1.615791
9.430000	1.601941
9.431000	1.594532
9.432000	1.584548
9.433000	1.577461
9.434000	1.602263
9.435000	1.619334
9.436000	1.609027
9.437000	1.571664
9.438000	1.523994
9.439000	1.493717
9.440000	1.490174
9.441000	1.489208
9.442000	1.481799
9.443000	1.489530
9.444000	1.490818
9.445000	1.428332
9.446000	1.397733
9.447000	1.424467
9.448000	1.461830
9.449000	1.496938
9.450000	1.542353
9.451000	1.620622
9.452000	1.690195
9.453000	1.730134
9.454000	1.730778
9.455000	1.725303
9.456000	1.729168
9.457000	1.713385
9.458000	1.703400
9.459000	1.674734
9.460000	1.657985
9.461000	1.656375
9.462000	1.659273
9.463000	1.652509
9.464000	1.642525
9.465000	1.629963
9.466000	1.604195
9.467000	1.588091
9.468000	1.598720
9.469000	1.606128
9.470000	1.615469
9.471000	1.609027
9.472000	1.594855
9.473000	1.587768
9.474000	1.584870
9.475000	1.583903
9.476000	1.590345
9.477000	1.591312
9.478000	1.600652
9.479000	1.606450
9.480000	1.601619
9.481000	1.603229
9.482000	1.598720
9.483000	1.593244
9.484000	1.581649
9.485000	1.570375
9.486000	1.548151
9.487000	1.523027
9.488000	1.512720
9.489000	1.514331
9.490000	1.520451
9.491000	1.553626
9.492000	1.598075
9.493000	1.603229
9.494000	1.604839
9.495000	1.591312
9.496000	1.567154
9.497000	1.559102
9.498000	1.547185
9.499000	1.549439
9.500000	1.568121
9.501000	1.577784
9.502000	1.584548
9.503000	1.584870
9.504000	1.592278
9.505000	1.598398
9.506000	1.609027
9.507000	1.609671
9.508000	1.613858
9.509000	1.616113
9.510000	1.600330
9.511000	1.567154
9.512000	1.543642
9.513000	1.526893
9.514000	1.518196
9.515000	1.507889
9.516000	1.501125
9.517000	1.501769
9.518000	1.525604
9.519000	1.567154
9.520000	1.600652
9.521000	1.610315
9.522000	1.612892
9.523000	1.610959
9.524000	1.596787
9.525000	1.563611
9.526000	1.536555
9.527000	1.499837
9.528000	1.468593
9.529000	1.471170
9.530000	1.535267
9.531000	1.603229
9.532000	1.626420
9.533000	1.624165
9.534000	1.628030
9.535000	1.628997
9.536000	1.624487
9.537000	1.609349
9.538000	1.612892
9.539000	1.609671
9.540000	1.615469
9.541000	1.625131
9.542000	1.586802
9.543000	1.523994
9.544000	1.471492
9.545000	1.428332
9.546000	1.407396
9.547000	1.437350
9.548000	1.477290
9.549000	1.539132
9.550000	1.601619
9.551000	1.654442
9.552000	1.713063
9.553000	1.706621
9.554000	1.692449
9.555000	1.705011
9.556000	1.695670
9.557000	1.679888
9.558000	1.673768
9.559000	1.659273
9.560000	1.644457
9.561000	1.629319
9.562000	1.620300
9.563000	1.614502
9.564000	1.601296
9.565000	1.597109
9.566000	1.592600
9.567000	1.586158
9.568000	1.587124
9.569000	1.578750
9.570000	1.531724
9.571000	1.462796
9.572000	1.429298
9.573000	1.402564
9.574000	1.409650
9.575000	1.444759
9.576000	1.490496
9.577000	1.575851
9.578000	1.648966
9.579000	1.695992
9.580000	1.717250
9.581000	1.695992
9.582000	1.683108
9.583000	1.699857
9.584000	1.679565
9.585000	1.661528
9.586000	1.659273
9.587000	1.647678
9.588000	1.636727
9.589000	1.627064
9.590000	1.613536
9.591000	1.598075
9.592000	1.587768
9.593000	1.584225
9.594000	1.580038
9.595000	1.575529
9.596000	1.551372
9.597000	1.538166
9.598000	1.526248
9.599000	1.527215
9.600000	1.528503
9.601000	1.529147
9.602000	1.530436
9.603000	1.542031
9.604000	1.562967
9.605000	1.569731
9.606000	1.600652
9.607000	1.626742
9.608000	1.628352
9.609000	1.635116
9.610000	1.627064
9.611000	1.617079
9.612000	1.602907
9.613000	1.579394
9.614000	1.552338
9.615000	1.524316
9.616000	1.528825
9.617000	1.537200
9.618000	1.555559
9.619000	1.562323
9.620000	1.587446
9.621000	1.611603
9.622000	1.613858
9.623000	1.599042
9.624000	1.585514
9.625000	1.591312
9.626000	1.615469
9.627000	1.609993
9.628000	1.590989
9.629000	1.581327
9.630000	1.589379
9.631000	1.587124
9.632000	1.562323
9.633000	1.537844
9.634000	1.528181
9.635000	1.513043
9.636000	1.527215
9.637000	1.552016
9.638000	1.565866
9.639000	1.588413
9.640000	1.609671
9.641000	1.613858
9.642000	1.617079
9.643000	1.608060
9.644000	1.614180
9.645000	1.619012
9.646000	1.611281
9.647000	1.601619
9.648000	1.593244
9.649000	1.586158
9.650000	1.583581
9.651000	1.587446
9.652000	1.584225
9.653000	1.563611
9.654000	1.529469
9.655000	1.517874
9.656000	1.509499
9.657000	1.455710
9.658000	1.392257
9.659000	1.375508
9.660000	1.390002
9.661000	1.417380
9.662000	1.472137
9.663000	1.543642
9.664000	1.614824
9.665000	1.702434
9.666000	1.771362
9.667000	1.789722
9.668000	1.778448
9.669000	1.756224
9.670000	1.724981
9.671000	1.698891
9.672000	1.676989
9.673000	1.663783
9.674000	1.642202
9.675000	1.622555
9.676000	1.608060
9.677000	1.574563
9.678000	1.525926
9.679000	1.500159
9.680000	1.501769
9.681000	1.510466
9.682000	1.536878
9.683000	1.558458
9.684000	1.581327
9.685000	1.606128
9.686000	1.624165
9.687000	1.626742
9.688000	1.625131
9.689000	1.607738
9.690000	1.570375
9.691000	1.575207
9.692000	1.588091
9.693000	1.645745
9.694000	1.648966
9.695000	1.620300
9.696000	1.579716
9.697000	1.546862
9.698000	1.549439
9.699000	1.561357
9.700000	1.567154
9.701000	1.579394
9.702000	1.597753
9.703000	1.593566
9.704000	1.583581
9.705000	1.561035
9.706000	1.556203
9.707000	1.550406
9.708000	1.553626
9.709000	1.561679
9.710000	1.572308
9.711000	1.586480
9.712000	1.585192
9.713000	1.568121
9.714000	1.550083
9.715000	1.544286
9.716000	1.531402
9.717000	1.522061
9.718000	1.528825
9.719000	1.551694
9.720000	1.582937
9.721000	1.644457
9.722000	1.672157
9.723000	1.669903
9.724000	1.654120
9.725000	1.623199
9.726000	1.593888
9.727000	1.566188
9.728000	1.554271
9.729000	1.539132
9.730000	1.507245
9.731000	1.461507
9.732000	1.461830
9.733000	1.487275
9.734000	1.510144
9.735000	1.558458
9.736000	1.613858
9.737000	1.676667
9.738000	1.703078
9.739000	1.708876
9.740000	1.701146
9.741000	1.702434
9.742000	1.679565
9.743000	1.649933
9.744000	1.617079
9.745000	1.607738
9.746000	1.589057
9.747000	1.571342
9.748000	1.558136
9.749000	1.557169
9.750000	1.557814
9.751000	1.558780
9.752000	1.562645
9.753000	1.555559
9.754000	1.530436
9.755000	1.514331
9.756000	1.531402
9.757000	1.546218
9.758000	1.514009
9.759000	1.469560
9.760000	1.447013
9.761000	1.468916
9.762000	1.493073
9.763000	1.528181
9.764000	1.573274
9.765000	1.627386
9.766000	1.677633
9.767000	1.714030
9.768000	1.730778
9.769000	1.730456
9.770000	1.723692
9.771000	1.694060
9.772000	1.660240
9.773000	1.643169
9.774000	1.624165
9.775000	1.614824
9.776000	1.603551
9.777000	1.592600
9.778000	1.588735
9.779000	1.591634
9.780000	1.574240
9.781000	1.564900
9.782000	1.554271
9.783000	1.521417
9.784000	1.491784
9.785000	1.483410
9.786000	1.497260
9.787000	1.511432
9.788000	1.560068
9.789000	1.606128
9.790000	1.646712
9.791000	1.653476
9.792000	1.656375
9.793000	1.647678
9.794000	1.635761
9.795000	1.612892
9.796000	1.601619
9.797000	1.590667
9.798000	1.585514
9.799000	1.595821
9.800000	1.608060
9.801000	1.612248
9.802000	1.610637
9.803000	1.606128
9.804000	1.589701
9.805000	1.563933
9.806000	1.546540
9.807000	1.539132
9.808000	1.511110
9.809000	1.464406
9.810000	1.421246
9.811000	1.400632
9.812000	1.392579
9.813000	1.404497
9.814000	1.450878
9.815000	1.518518
9.816000	1.567154
9.817000	1.593888
9.818000	1.640270
9.819000	1.683431
9.820000	1.714030
9.821000	1.703078
9.822000	1.680854
9.823000	1.672479
9.824000	1.664749
9.825000	1.652832
9.826000	1.668292
9.827000	1.658307
9.828000	1.638981
9.829000	1.625454
9.830000	1.598398
9.831000	1.584548
9.832000	1.576495
9.833000	1.573918
9.834000	1.572952
9.835000	1.588413
9.836000	1.625454
9.837000	1.630607
9.838000	1.634472
9.839000	1.634794
9.840000	1.632218
9.841000	1.620944
9.842000	1.547507
9.843000	1.469560
9.844000	1.440571
9.845000	1.448946
9.846000	1.469560
9.847000	1.501125
9.848000	1.523672
9.849000	1.555559
9.850000	1.626098
9.851000	1.647034
9.852000	1.674412
9.853000	1.674734
9.854000	1.656375
9.855000	1.627064
9.856000	1.608060
9.857000	1.578750
9.858000	1.562967
9.859000	1.547829
9.860000	1.538810
9.861000	1.524638
9.862000	1.524960
9.863000	1.538166
9.864000	1.550406
9.865000	1.562967
9.866000	1.604517
9.867000	1.659596
9.868000	1.688584
9.869000	1.683108
9.870000	1.667970
9.871000	1.653154
9.872000	1.645745
9.873000	1.639948
9.874000	1.631251
9.875000	1.610637
9.876000	1.571664
9.877000	1.536233
9.878000	1.523994
9.879000	1.521095
9.880000	1.533657
9.881000	1.561035
9.882000	1.587124
9.883000	1.578750
9.884000	1.573596
9.885000	1.567477
9.886000	1.575851
9.887000	1.592600
9.888000	1.593888
9.889000	1.586802
9.890000	1.595499
9.891000	1.590345
9.892000	1.589701
9.893000	1.571664
9.894000	1.538810
9.895000	1.499192
9.896000	1.498870
9.897000	1.517230
9.898000	1.531080
9.899000	1.557169
9.900000	1.578106
9.901000	1.601941
9.902000	1.622877
9.903000	1.639626
9.904000	1.651865
9.905000	1.653476
9.906000	1.628030
9.907000	1.591956
9.908000	1.570375
9.909000	1.565544
9.910000	1.555881
9.911000	1.549439
9.912000	1.550083
9.913000	1.566188
9.914000	1.590023
9.915000	1.618045
9.916000	1.625131
9.917000	1.632862
9.918000	1.652832
9.919000	1.653154
9.920000	1.612248
9.921000	1.571020
9.922000	1.549761
9.923000	1.546862
9.924000	1.527537
9.925000	1.526893
9.926000	1.558458
9.927000	1.563611
9.928000	1.577139
9.929000	1.593566
9.930000	1.600974
9.931000	1.619656
9.932000	1.628997
9.933000	1.620944
9.934000	1.609027
9.935000	1.590989
9.936000	1.567477
9.937000	1.571342
9.938000	1.586480
9.939000	1.589379
9.940000	1.611926
9.941000	1.614824
9.942000	1.596465
9.943000	1.555881
9.944000	1.531724
9.945000	1.508211
9.946000	1.486309
9.947000	1.490496
9.948000	1.486631
9.949000	1.470204
9.950000	1.489208
9.951000	1.547829
9.952000	1.597431
9.953000	1.620944
9.954000	1.630285
9.955000	1.631895
9.956000	1.611603
9.957000	1.575207
9.958000	1.559746
9.959000	1.584225
9.960000	1.606450
9.961000	1.628674
9.962000	1.652187
9.963000	1.663139
9.964000	1.656697
9.965000	1.615791
9.966000	1.577139
9.967000	1.552016
9.968000	1.539454
9.969000	1.547185
9.970000	1.577139
9.971000	1.622233
9.972000	1.661206
9.973000	1.676022
9.974000	1.676667
9.975000	1.661206
9.976000	1.618367
9.977000	1.577461
9.978000	1.559424
9.979000	1.560713
9.980000	1.578106
9.981000	1.604517
9.982000	1.579072
9.983000	1.530758
9.984000	1.496294
9.985000	1.482121
9.986000	1.474713
9.987000	1.488241
9.988000	1.502413
9.989000	1.526248
9.990000	1.581971
9.991000	1.618690
9.992000	1.624487
9.993000	1.628030
9.994000	1.658629
9.995000	1.663461
9.996000	1.665393
9.997000	1.676022
9.998000	1.687940
9.999000	1.682142

