LabVIEW Measurement	
Writer_Version	2
Reader_Version	2
Separator	Tab
Decimal_Separator	.
Multi_Headings	Yes
X_Columns	One
Time_Pref	Relative
Operator	bjl40
Description	Time Domain Data
Date	1903/12/31
Time	19:00:00
***End_of_Header***	
	
Channels	1	
Samples	10000	
Date	1903/12/31	
Time	19:00:00	
X_Dimension	Time	
X0	0.0000000000000000E+0	
Delta_X	0.001000	
***End_of_Header***		
X_Value	Untitled	Comment
0.000000	1.637371	Tare Values:0.000000, 0.000000, 0.000000, 0.000000\0D\0A
0.001000	1.653154
0.002000	1.654120
0.003000	1.646390
0.004000	1.621266
0.005000	1.671513
0.006000	1.708232
0.007000	1.705011
0.008000	1.665071
0.009000	1.659918
0.010000	1.664105
0.011000	1.631895
0.012000	1.587768
0.013000	1.499192
0.014000	1.396766
0.015000	1.310767
0.016000	1.285644
0.017000	1.309801
0.018000	1.386459
0.019000	1.520451
0.020000	1.652509
0.021000	1.714674
0.022000	1.742696
0.023000	1.731745
0.024000	1.713063
0.025000	1.722082
0.026000	1.727880
0.027000	1.699535
0.028000	1.673124
0.029000	1.586802
0.030000	1.469560
0.031000	1.395478
0.032000	1.384849
0.033000	1.425111
0.034000	1.502736
0.035000	1.666037
0.036000	1.817100
0.037000	1.878298
0.038000	1.847699
0.039000	1.809370
0.040000	1.699535
0.041000	1.523350
0.042000	1.431231
0.043000	1.418669
0.044000	1.404819
0.045000	1.407396
0.046000	1.425755
0.047000	1.463118
0.048000	1.490818
0.049000	1.516586
0.050000	1.514975
0.051000	1.449912
0.052000	1.373254
0.053000	1.360048
0.054000	1.393868
0.055000	1.490818
0.056000	1.662494
0.057000	1.785212
0.058000	1.796486
0.059000	1.739153
0.060000	1.657663
0.061000	1.600974
0.062000	1.557492
0.063000	1.548473
0.064000	1.559424
0.065000	1.617079
0.066000	1.645423
0.067000	1.611603
0.068000	1.557169
0.069000	1.516908
0.070000	1.512720
0.071000	1.534945
0.072000	1.613214
0.073000	1.699213
0.074000	1.744951
0.075000	1.733355
0.076000	1.699535
0.077000	1.635761
0.078000	1.603229
0.079000	1.553626
0.080000	1.470526
0.081000	1.424467
0.082000	1.422856
0.083000	1.455066
0.084000	1.465050
0.085000	1.463440
0.086000	1.472781
0.087000	1.497904
0.088000	1.512076
0.089000	1.559746
0.090000	1.600974
0.091000	1.635116
0.092000	1.654120
0.093000	1.698247
0.094000	1.745595
0.095000	1.747849
0.096000	1.672801
0.097000	1.583259
0.098000	1.545252
0.099000	1.545252
0.100000	1.523672
0.101000	1.508533
0.102000	1.523350
0.103000	1.530114
0.104000	1.497904
0.105000	1.487919
0.106000	1.489208
0.107000	1.497260
0.108000	1.543964
0.109000	1.575529
0.110000	1.580360
0.111000	1.559102
0.112000	1.550083
0.113000	1.551694
0.114000	1.545574
0.115000	1.514331
0.116000	1.523350
0.117000	1.549761
0.118000	1.589379
0.119000	1.639948
0.120000	1.617401
0.121000	1.576817
0.122000	1.552016
0.123000	1.516263
0.124000	1.505956
0.125000	1.512076
0.126000	1.531080
0.127000	1.555237
0.128000	1.577461
0.129000	1.580038
0.130000	1.616435
0.131000	1.627708
0.132000	1.643813
0.133000	1.617723
0.134000	1.546862
0.135000	1.484054
0.136000	1.444436
0.137000	1.467305
0.138000	1.521095
0.139000	1.548795
0.140000	1.593888
0.141000	1.632218
0.142000	1.663461
0.143000	1.703400
0.144000	1.729490
0.145000	1.725947
0.146000	1.731101
0.147000	1.692127
0.148000	1.597109
0.149000	1.475357
0.150000	1.398055
0.151000	1.392901
0.152000	1.408362
0.153000	1.451522
0.154000	1.514009
0.155000	1.579716
0.156000	1.635761
0.157000	1.700179
0.158000	1.787467
0.159000	1.829662
0.160000	1.804216
0.161000	1.757834
0.162000	1.643169
0.163000	1.546218
0.164000	1.485987
0.165000	1.414160
0.166000	1.321074
0.167000	1.312700
0.168000	1.350385
0.169000	1.409650
0.170000	1.447013
0.171000	1.451845
0.172000	1.503702
0.173000	1.549117
0.174000	1.573918
0.175000	1.549439
0.176000	1.513043
0.177000	1.511754
0.178000	1.510466
0.179000	1.503702
0.180000	1.490174
0.181000	1.482766
0.182000	1.476646
0.183000	1.491140
0.184000	1.543642
0.185000	1.586802
0.186000	1.622555
0.187000	1.634150
0.188000	1.642202
0.189000	1.615147
0.190000	1.606772
0.191000	1.606128
0.192000	1.597431
0.193000	1.588413
0.194000	1.579072
0.195000	1.587768
0.196000	1.638981
0.197000	1.654442
0.198000	1.648000
0.199000	1.634472
0.200000	1.605806
0.201000	1.580360
0.202000	1.618690
0.203000	1.615147
0.204000	1.588091
0.205000	1.612892
0.206000	1.665715
0.207000	1.672157
0.208000	1.648000
0.209000	1.602263
0.210000	1.559424
0.211000	1.517552
0.212000	1.511432
0.213000	1.530114
0.214000	1.556203
0.215000	1.573918
0.216000	1.590667
0.217000	1.602263
0.218000	1.621910
0.219000	1.659596
0.220000	1.672801
0.221000	1.658951
0.222000	1.610959
0.223000	1.644457
0.224000	1.666360
0.225000	1.691805
0.226000	1.694704
0.227000	1.608705
0.228000	1.535589
0.229000	1.507889
0.230000	1.477934
0.231000	1.457320
0.232000	1.483732
0.233000	1.539132
0.234000	1.608383
0.235000	1.637049
0.236000	1.604517
0.237000	1.567154
0.238000	1.537200
0.239000	1.534301
0.240000	1.549439
0.241000	1.517552
0.242000	1.514331
0.243000	1.552982
0.244000	1.570375
0.245000	1.544286
0.246000	1.538166
0.247000	1.558136
0.248000	1.594855
0.249000	1.625776
0.250000	1.610315
0.251000	1.580038
0.252000	1.523994
0.253000	1.473425
0.254000	1.475680
0.255000	1.491784
0.256000	1.497904
0.257000	1.502736
0.258000	1.559746
0.259000	1.643491
0.260000	1.715318
0.261000	1.725303
0.262000	1.671835
0.263000	1.624165
0.264000	1.572952
0.265000	1.523350
0.266000	1.460219
0.267000	1.451522
0.268000	1.484698
0.269000	1.510466
0.270000	1.515619
0.271000	1.541709
0.272000	1.613536
0.273000	1.684397
0.274000	1.752037
0.275000	1.763632
0.276000	1.728846
0.277000	1.682786
0.278000	1.616757
0.279000	1.512076
0.280000	1.441538
0.281000	1.496294
0.282000	1.579716
0.283000	1.617723
0.284000	1.580360
0.285000	1.557814
0.286000	1.545252
0.287000	1.526893
0.288000	1.453133
0.289000	1.435418
0.290000	1.429620
0.291000	1.453133
0.292000	1.471814
0.293000	1.491784
0.294000	1.523350
0.295000	1.543642
0.296000	1.554271
0.297000	1.574563
0.298000	1.580360
0.299000	1.590345
0.300000	1.593566
0.301000	1.575529
0.302000	1.568765
0.303000	1.591634
0.304000	1.554915
0.305000	1.483088
0.306000	1.446369
0.307000	1.451200
0.308000	1.461185
0.309000	1.504346
0.310000	1.529469
0.311000	1.528825
0.312000	1.503702
0.313000	1.505956
0.314000	1.535589
0.315000	1.584225
0.316000	1.625776
0.317000	1.651543
0.318000	1.647356
0.319000	1.634472
0.320000	1.608705
0.321000	1.581649
0.322000	1.569087
0.323000	1.547185
0.324000	1.550406
0.325000	1.550728
0.326000	1.589057
0.327000	1.648000
0.328000	1.659273
0.329000	1.641558
0.330000	1.578106
0.331000	1.510144
0.332000	1.498548
0.333000	1.483732
0.334000	1.505956
0.335000	1.558136
0.336000	1.584548
0.337000	1.602263
0.338000	1.643491
0.339000	1.722404
0.340000	1.814523
0.341000	1.884418
0.342000	1.881519
0.343000	1.892470
0.344000	1.885706
0.345000	1.780703
0.346000	1.606772
0.347000	1.477934
0.348000	1.388070
0.349000	1.321718
0.350000	1.280168
0.351000	1.310123
0.352000	1.374864
0.353000	1.410616
0.354000	1.440893
0.355000	1.528181
0.356000	1.607738
0.357000	1.651865
0.358000	1.686007
0.359000	1.695992
0.360000	1.667004
0.361000	1.581971
0.362000	1.527537
0.363000	1.495327
0.364000	1.452811
0.365000	1.447657
0.366000	1.457964
0.367000	1.491462
0.368000	1.515941
0.369000	1.574563
0.370000	1.585192
0.371000	1.552660
0.372000	1.525282
0.373000	1.530436
0.374000	1.553304
0.375000	1.566510
0.376000	1.589701
0.377000	1.556203
0.378000	1.487275
0.379000	1.409328
0.380000	1.409328
0.381000	1.409006
0.382000	1.456998
0.383000	1.543964
0.384000	1.636727
0.385000	1.661850
0.386000	1.656053
0.387000	1.661850
0.388000	1.672801
0.389000	1.678277
0.390000	1.672479
0.391000	1.660562
0.392000	1.665393
0.393000	1.648644
0.394000	1.596465
0.395000	1.581971
0.396000	1.529469
0.397000	1.478256
0.398000	1.484376
0.399000	1.480189
0.400000	1.518196
0.401000	1.547829
0.402000	1.531080
0.403000	1.535589
0.404000	1.564256
0.405000	1.532368
0.406000	1.510466
0.407000	1.531080
0.408000	1.573918
0.409000	1.663461
0.410000	1.729490
0.411000	1.755902
0.412000	1.748172
0.413000	1.695348
0.414000	1.593566
0.415000	1.549439
0.416000	1.519807
0.417000	1.495327
0.418000	1.506279
0.419000	1.533012
0.420000	1.553304
0.421000	1.545574
0.422000	1.536555
0.423000	1.569409
0.424000	1.612892
0.425000	1.637371
0.426000	1.634472
0.427000	1.656375
0.428000	1.661528
0.429000	1.698247
0.430000	1.764920
0.431000	1.811302
0.432000	1.784246
0.433000	1.722404
0.434000	1.606450
0.435000	1.524638
0.436000	1.490496
0.437000	1.458609
0.438000	1.452489
0.439000	1.462796
0.440000	1.545574
0.441000	1.585514
0.442000	1.579394
0.443000	1.550406
0.444000	1.516908
0.445000	1.485342
0.446000	1.483732
0.447000	1.504346
0.448000	1.578428
0.449000	1.627708
0.450000	1.665715
0.451000	1.700502
0.452000	1.709198
0.453000	1.695670
0.454000	1.660240
0.455000	1.670225
0.456000	1.678599
0.457000	1.686329
0.458000	1.674412
0.459000	1.675378
0.460000	1.598075
0.461000	1.510466
0.462000	1.450556
0.463000	1.408684
0.464000	1.389358
0.465000	1.396444
0.466000	1.434451
0.467000	1.511110
0.468000	1.564256
0.469000	1.560068
0.470000	1.521095
0.471000	1.504024
0.472000	1.496938
0.473000	1.505634
0.474000	1.529147
0.475000	1.559746
0.476000	1.570053
0.477000	1.596465
0.478000	1.566188
0.479000	1.533012
0.480000	1.552982
0.481000	1.596465
0.482000	1.629319
0.483000	1.620300
0.484000	1.599042
0.485000	1.588091
0.486000	1.582293
0.487000	1.536878
0.488000	1.475680
0.489000	1.469882
0.490000	1.526893
0.491000	1.563289
0.492000	1.554915
0.493000	1.533012
0.494000	1.533979
0.495000	1.547185
0.496000	1.538166
0.497000	1.544930
0.498000	1.570053
0.499000	1.577461
0.500000	1.558136
0.501000	1.578750
0.502000	1.602907
0.503000	1.621266
0.504000	1.613536
0.505000	1.576817
0.506000	1.555237
0.507000	1.551694
0.508000	1.533979
0.509000	1.561679
0.510000	1.650899
0.511000	1.685685
0.512000	1.653798
0.513000	1.561679
0.514000	1.478578
0.515000	1.395800
0.516000	1.385171
0.517000	1.388392
0.518000	1.426721
0.519000	1.462474
0.520000	1.480511
0.521000	1.491462
0.522000	1.505956
0.523000	1.517230
0.524000	1.542675
0.525000	1.584225
0.526000	1.617079
0.527000	1.633828
0.528000	1.668614
0.529000	1.670869
0.530000	1.640592
0.531000	1.632540
0.532000	1.619012
0.533000	1.593888
0.534000	1.514331
0.535000	1.494683
0.536000	1.539132
0.537000	1.574563
0.538000	1.596143
0.539000	1.606128
0.540000	1.619978
0.541000	1.620622
0.542000	1.612892
0.543000	1.567477
0.544000	1.514975
0.545000	1.514653
0.546000	1.515619
0.547000	1.509822
0.548000	1.530436
0.549000	1.549117
0.550000	1.581004
0.551000	1.601941
0.552000	1.599042
0.553000	1.607738
0.554000	1.625776
0.555000	1.648322
0.556000	1.663783
0.557000	1.658629
0.558000	1.636083
0.559000	1.619334
0.560000	1.568765
0.561000	1.534945
0.562000	1.513687
0.563000	1.509822
0.564000	1.524638
0.565000	1.550406
0.566000	1.545896
0.567000	1.540743
0.568000	1.528181
0.569000	1.527537
0.570000	1.519162
0.571000	1.520773
0.572000	1.541065
0.573000	1.527537
0.574000	1.517230
0.575000	1.536233
0.576000	1.588091
0.577000	1.626420
0.578000	1.628674
0.579000	1.638981
0.580000	1.661206
0.581000	1.702756
0.582000	1.693738
0.583000	1.624487
0.584000	1.541387
0.585000	1.483410
0.586000	1.410616
0.587000	1.392257
0.588000	1.439927
0.589000	1.533012
0.590000	1.600974
0.591000	1.624809
0.592000	1.623843
0.593000	1.627386
0.594000	1.605484
0.595000	1.588091
0.596000	1.568765
0.597000	1.573596
0.598000	1.578750
0.599000	1.564256
0.600000	1.558780
0.601000	1.572952
0.602000	1.567477
0.603000	1.586802
0.604000	1.642202
0.605000	1.640592
0.606000	1.667326
0.607000	1.695026
0.608000	1.708876
0.609000	1.700502
0.610000	1.704367
0.611000	1.716284
0.612000	1.692771
0.613000	1.627064
0.614000	1.571664
0.615000	1.573274
0.616000	1.628674
0.617000	1.638659
0.618000	1.589057
0.619000	1.518196
0.620000	1.477612
0.621000	1.477290
0.622000	1.447335
0.623000	1.445403
0.624000	1.486631
0.625000	1.512720
0.626000	1.590989
0.627000	1.637371
0.628000	1.620944
0.629000	1.559424
0.630000	1.500481
0.631000	1.467949
0.632000	1.490174
0.633000	1.509499
0.634000	1.510466
0.635000	1.520773
0.636000	1.511110
0.637000	1.506279
0.638000	1.546862
0.639000	1.552982
0.640000	1.527537
0.641000	1.503380
0.642000	1.516586
0.643000	1.591634
0.644000	1.614824
0.645000	1.631573
0.646000	1.620944
0.647000	1.599686
0.648000	1.567799
0.649000	1.533657
0.650000	1.549117
0.651000	1.593566
0.652000	1.612570
0.653000	1.574563
0.654000	1.535267
0.655000	1.479867
0.656000	1.438961
0.657000	1.446691
0.658000	1.509177
0.659000	1.537844
0.660000	1.561679
0.661000	1.568765
0.662000	1.550728
0.663000	1.525282
0.664000	1.532368
0.665000	1.556847
0.666000	1.603229
0.667000	1.635116
0.668000	1.644457
0.669000	1.646712
0.670000	1.639304
0.671000	1.627708
0.672000	1.581004
0.673000	1.533979
0.674000	1.534301
0.675000	1.551050
0.676000	1.589057
0.677000	1.627386
0.678000	1.666360
0.679000	1.660884
0.680000	1.627708
0.681000	1.575851
0.682000	1.517874
0.683000	1.471814
0.684000	1.443470
0.685000	1.516586
0.686000	1.591634
0.687000	1.592278
0.688000	1.616757
0.689000	1.670225
0.690000	1.727558
0.691000	1.742374
0.692000	1.738509
0.693000	1.719183
0.694000	1.675700
0.695000	1.604195
0.696000	1.551050
0.697000	1.547507
0.698000	1.571342
0.699000	1.539454
0.700000	1.478256
0.701000	1.469882
0.702000	1.466983
0.703000	1.490818
0.704000	1.525282
0.705000	1.543319
0.706000	1.549439
0.707000	1.535911
0.708000	1.517874
0.709000	1.508533
0.710000	1.517552
0.711000	1.538488
0.712000	1.552016
0.713000	1.564900
0.714000	1.558136
0.715000	1.538166
0.716000	1.524960
0.717000	1.512398
0.718000	1.485020
0.719000	1.473747
0.720000	1.518840
0.721000	1.551694
0.722000	1.544930
0.723000	1.537200
0.724000	1.515619
0.725000	1.489530
0.726000	1.472137
0.727000	1.493395
0.728000	1.503702
0.729000	1.488885
0.730000	1.495649
0.731000	1.563289
0.732000	1.652832
0.733000	1.757190
0.734000	1.801961
0.735000	1.787789
0.736000	1.735288
0.737000	1.674734
0.738000	1.614502
0.739000	1.546218
0.740000	1.512398
0.741000	1.516263
0.742000	1.562645
0.743000	1.601941
0.744000	1.619334
0.745000	1.643169
0.746000	1.643169
0.747000	1.607738
0.748000	1.551694
0.749000	1.511110
0.750000	1.484376
0.751000	1.489530
0.752000	1.554271
0.753000	1.627708
0.754000	1.662172
0.755000	1.725303
0.756000	1.744629
0.757000	1.726269
0.758000	1.666682
0.759000	1.563611
0.760000	1.502091
0.761000	1.481155
0.762000	1.504346
0.763000	1.562645
0.764000	1.624165
0.765000	1.660884
0.766000	1.663139
0.767000	1.640592
0.768000	1.594532
0.769000	1.551694
0.770000	1.518840
0.771000	1.451522
0.772000	1.456676
0.773000	1.514331
0.774000	1.568121
0.775000	1.580038
0.776000	1.550406
0.777000	1.532368
0.778000	1.528825
0.779000	1.535267
0.780000	1.546540
0.781000	1.528503
0.782000	1.508533
0.783000	1.515619
0.784000	1.561357
0.785000	1.604195
0.786000	1.586480
0.787000	1.540743
0.788000	1.532690
0.789000	1.525604
0.790000	1.532368
0.791000	1.533657
0.792000	1.552660
0.793000	1.562323
0.794000	1.536555
0.795000	1.506601
0.796000	1.511432
0.797000	1.516586
0.798000	1.528181
0.799000	1.522705
0.800000	1.514975
0.801000	1.475035
0.802000	1.466983
0.803000	1.485342
0.804000	1.527859
0.805000	1.580682
0.806000	1.632862
0.807000	1.672801
0.808000	1.669580
0.809000	1.654120
0.810000	1.614824
0.811000	1.566510
0.812000	1.566188
0.813000	1.596465
0.814000	1.614502
0.815000	1.589379
0.816000	1.580360
0.817000	1.588735
0.818000	1.612248
0.819000	1.630929
0.820000	1.623843
0.821000	1.608705
0.822000	1.571020
0.823000	1.523672
0.824000	1.504990
0.825000	1.511432
0.826000	1.532046
0.827000	1.574240
0.828000	1.643491
0.829000	1.708232
0.830000	1.753325
0.831000	1.757190
0.832000	1.732389
0.833000	1.686007
0.834000	1.617723
0.835000	1.551372
0.836000	1.442182
0.837000	1.343299
0.838000	1.345553
0.839000	1.360370
0.840000	1.428976
0.841000	1.487275
0.842000	1.520451
0.843000	1.544608
0.844000	1.552660
0.845000	1.596787
0.846000	1.618045
0.847000	1.655408
0.848000	1.665715
0.849000	1.626098
0.850000	1.553949
0.851000	1.523350
0.852000	1.470848
0.853000	1.417058
0.854000	1.408040
0.855000	1.447979
0.856000	1.531080
0.857000	1.615147
0.858000	1.660562
0.859000	1.709842
0.860000	1.716928
0.861000	1.706621
0.862000	1.677955
0.863000	1.653154
0.864000	1.637371
0.865000	1.616757
0.866000	1.596465
0.867000	1.579072
0.868000	1.533657
0.869000	1.475035
0.870000	1.447979
0.871000	1.421246
0.872000	1.429942
0.873000	1.481155
0.874000	1.538810
0.875000	1.591312
0.876000	1.622877
0.877000	1.614824
0.878000	1.605806
0.879000	1.600652
0.880000	1.637371
0.881000	1.656697
0.882000	1.631895
0.883000	1.591634
0.884000	1.587446
0.885000	1.580038
0.886000	1.581327
0.887000	1.547507
0.888000	1.529469
0.889000	1.530114
0.890000	1.535267
0.891000	1.577461
0.892000	1.609027
0.893000	1.637693
0.894000	1.648644
0.895000	1.653476
0.896000	1.666037
0.897000	1.671513
0.898000	1.636727
0.899000	1.551694
0.900000	1.499837
0.901000	1.450878
0.902000	1.428010
0.903000	1.471492
0.904000	1.543642
0.905000	1.609027
0.906000	1.629641
0.907000	1.648966
0.908000	1.638981
0.909000	1.630607
0.910000	1.594855
0.911000	1.578428
0.912000	1.535589
0.913000	1.509177
0.914000	1.496938
0.915000	1.489852
0.916000	1.493717
0.917000	1.483410
0.918000	1.500159
0.919000	1.520451
0.920000	1.536878
0.921000	1.559102
0.922000	1.562967
0.923000	1.586480
0.924000	1.633184
0.925000	1.681498
0.926000	1.682464
0.927000	1.651865
0.928000	1.628030
0.929000	1.554593
0.930000	1.506601
0.931000	1.490496
0.932000	1.493395
0.933000	1.497582
0.934000	1.481155
0.935000	1.454743
0.936000	1.470848
0.937000	1.502736
0.938000	1.545252
0.939000	1.579394
0.940000	1.638337
0.941000	1.664105
0.942000	1.636405
0.943000	1.603873
0.944000	1.574563
0.945000	1.593244
0.946000	1.617723
0.947000	1.622555
0.948000	1.567477
0.949000	1.498870
0.950000	1.485665
0.951000	1.558780
0.952000	1.622877
0.953000	1.615469
0.954000	1.598720
0.955000	1.611603
0.956000	1.655086
0.957000	1.688906
0.958000	1.711775
0.959000	1.696636
0.960000	1.664105
0.961000	1.654120
0.962000	1.633506
0.963000	1.581327
0.964000	1.533657
0.965000	1.542031
0.966000	1.560390
0.967000	1.577461
0.968000	1.552982
0.969000	1.504668
0.970000	1.489530
0.971000	1.463762
0.972000	1.470204
0.973000	1.479545
0.974000	1.449912
0.975000	1.462796
0.976000	1.511110
0.977000	1.586802
0.978000	1.652509
0.979000	1.670225
0.980000	1.693738
0.981000	1.694060
0.982000	1.665715
0.983000	1.657663
0.984000	1.594210
0.985000	1.493073
0.986000	1.432519
0.987000	1.394190
0.988000	1.420601
0.989000	1.463118
0.990000	1.525604
0.991000	1.568765
0.992000	1.605806
0.993000	1.616435
0.994000	1.591956
0.995000	1.577139
0.996000	1.556525
0.997000	1.530758
0.998000	1.523027
0.999000	1.516586
1.000000	1.491784
1.001000	1.519484
1.002000	1.557814
1.003000	1.557492
1.004000	1.571986
1.005000	1.568443
1.006000	1.575529
1.007000	1.603229
1.008000	1.602907
1.009000	1.580682
1.010000	1.585192
1.011000	1.597431
1.012000	1.568443
1.013000	1.565866
1.014000	1.579072
1.015000	1.612248
1.016000	1.640270
1.017000	1.647034
1.018000	1.631895
1.019000	1.658951
1.020000	1.648966
1.021000	1.610637
1.022000	1.529469
1.023000	1.490496
1.024000	1.466339
1.025000	1.481155
1.026000	1.530758
1.027000	1.563611
1.028000	1.560390
1.029000	1.533979
1.030000	1.553626
1.031000	1.570697
1.032000	1.568765
1.033000	1.554593
1.034000	1.563611
1.035000	1.544286
1.036000	1.524638
1.037000	1.536233
1.038000	1.555881
1.039000	1.562001
1.040000	1.578428
1.041000	1.640270
1.042000	1.719827
1.043000	1.774583
1.044000	1.786501
1.045000	1.781669
1.046000	1.715640
1.047000	1.631895
1.048000	1.599686
1.049000	1.572308
1.050000	1.527537
1.051000	1.486309
1.052000	1.447657
1.053000	1.422212
1.054000	1.450556
1.055000	1.471492
1.056000	1.500803
1.057000	1.483410
1.058000	1.467305
1.059000	1.469560
1.060000	1.493395
1.061000	1.517552
1.062000	1.527537
1.063000	1.608705
1.064000	1.691483
1.065000	1.711131
1.066000	1.676344
1.067000	1.620622
1.068000	1.558458
1.069000	1.508533
1.070000	1.487919
1.071000	1.473103
1.072000	1.450234
1.073000	1.433485
1.074000	1.441538
1.075000	1.482444
1.076000	1.580682
1.077000	1.650899
1.078000	1.708554
1.079000	1.767175
1.080000	1.751715
1.081000	1.777160
1.082000	1.789078
1.083000	1.756224
1.084000	1.680210
1.085000	1.633184
1.086000	1.615791
1.087000	1.575851
1.088000	1.534301
1.089000	1.491462
1.090000	1.434129
1.091000	1.412549
1.092000	1.471814
1.093000	1.505312
1.094000	1.496938
1.095000	1.463118
1.096000	1.444114
1.097000	1.435418
1.098000	1.442826
1.099000	1.449590
1.100000	1.445725
1.101000	1.454099
1.102000	1.510788
1.103000	1.583903
1.104000	1.628030
1.105000	1.628997
1.106000	1.654442
1.107000	1.687940
1.108000	1.694060
1.109000	1.676022
1.110000	1.636083
1.111000	1.603229
1.112000	1.574240
1.113000	1.585514
1.114000	1.585192
1.115000	1.542675
1.116000	1.524316
1.117000	1.548473
1.118000	1.542031
1.119000	1.509822
1.120000	1.479223
1.121000	1.485342
1.122000	1.516586
1.123000	1.553949
1.124000	1.584548
1.125000	1.626098
1.126000	1.672479
1.127000	1.681820
1.128000	1.662494
1.129000	1.649611
1.130000	1.623843
1.131000	1.615791
1.132000	1.610315
1.133000	1.603873
1.134000	1.581327
1.135000	1.576173
1.136000	1.572630
1.137000	1.545252
1.138000	1.553304
1.139000	1.587124
1.140000	1.614180
1.141000	1.629319
1.142000	1.645423
1.143000	1.630607
1.144000	1.611603
1.145000	1.606450
1.146000	1.582615
1.147000	1.542675
1.148000	1.501125
1.149000	1.489208
1.150000	1.508855
1.151000	1.551694
1.152000	1.569087
1.153000	1.594532
1.154000	1.631573
1.155000	1.648644
1.156000	1.614824
1.157000	1.575529
1.158000	1.547185
1.159000	1.535589
1.160000	1.483088
1.161000	1.412549
1.162000	1.372931
1.163000	1.419635
1.164000	1.502736
1.165000	1.528503
1.166000	1.546540
1.167000	1.560713
1.168000	1.551372
1.169000	1.553304
1.170000	1.565866
1.171000	1.585836
1.172000	1.572630
1.173000	1.550728
1.174000	1.529147
1.175000	1.529791
1.176000	1.529791
1.177000	1.516586
1.178000	1.553304
1.179000	1.590667
1.180000	1.638659
1.181000	1.696636
1.182000	1.697925
1.183000	1.638659
1.184000	1.574563
1.185000	1.544930
1.186000	1.540098
1.187000	1.546540
1.188000	1.544286
1.189000	1.544930
1.190000	1.549439
1.191000	1.559746
1.192000	1.577139
1.193000	1.582937
1.194000	1.529147
1.195000	1.518518
1.196000	1.560390
1.197000	1.602585
1.198000	1.591956
1.199000	1.545896
1.200000	1.524960
1.201000	1.488563
1.202000	1.452811
1.203000	1.451200
1.204000	1.476002
1.205000	1.512398
1.206000	1.560068
1.207000	1.623199
1.208000	1.670547
1.209000	1.681176
1.210000	1.674734
1.211000	1.654764
1.212000	1.627708
1.213000	1.608705
1.214000	1.612892
1.215000	1.609027
1.216000	1.628997
1.217000	1.678599
1.218000	1.743662
1.219000	1.797130
1.220000	1.823542
1.221000	1.804538
1.222000	1.740441
1.223000	1.647678
1.224000	1.572952
1.225000	1.522383
1.226000	1.513043
1.227000	1.509177
1.228000	1.508533
1.229000	1.520129
1.230000	1.528181
1.231000	1.531080
1.232000	1.540098
1.233000	1.546218
1.234000	1.556203
1.235000	1.584225
1.236000	1.605484
1.237000	1.594210
1.238000	1.549761
1.239000	1.497904
1.240000	1.453777
1.241000	1.459575
1.242000	1.480189
1.243000	1.514331
1.244000	1.517874
1.245000	1.497260
1.246000	1.446691
1.247000	1.421890
1.248000	1.436062
1.249000	1.444114
1.250000	1.471170
1.251000	1.505634
1.252000	1.557492
1.253000	1.628997
1.254000	1.667648
1.255000	1.679888
1.256000	1.630607
1.257000	1.548473
1.258000	1.494361
1.259000	1.490818
1.260000	1.531724
1.261000	1.572308
1.262000	1.573274
1.263000	1.575851
1.264000	1.622555
1.265000	1.659918
1.266000	1.641236
1.267000	1.613214
1.268000	1.625454
1.269000	1.604517
1.270000	1.526571
1.271000	1.476968
1.272000	1.457964
1.273000	1.472781
1.274000	1.510788
1.275000	1.527859
1.276000	1.537844
1.277000	1.552982
1.278000	1.565544
1.279000	1.569409
1.280000	1.578750
1.281000	1.582615
1.282000	1.581649
1.283000	1.576495
1.284000	1.583259
1.285000	1.588735
1.286000	1.590989
1.287000	1.602907
1.288000	1.624809
1.289000	1.669580
1.290000	1.710486
1.291000	1.765887
1.292000	1.809047
1.293000	1.817422
1.294000	1.806471
1.295000	1.719827
1.296000	1.593244
1.297000	1.500481
1.298000	1.448624
1.299000	1.402886
1.300000	1.403853
1.301000	1.417058
1.302000	1.441538
1.303000	1.473103
1.304000	1.503058
1.305000	1.516908
1.306000	1.504024
1.307000	1.493073
1.308000	1.497904
1.309000	1.481155
1.310000	1.494683
1.311000	1.515619
1.312000	1.556525
1.313000	1.599364
1.314000	1.630929
1.315000	1.636727
1.316000	1.654764
1.317000	1.666360
1.318000	1.632218
1.319000	1.600652
1.320000	1.558458
1.321000	1.528825
1.322000	1.498226
1.323000	1.487597
1.324000	1.466339
1.325000	1.442826
1.326000	1.449590
1.327000	1.467627
1.328000	1.514975
1.329000	1.526571
1.330000	1.562645
1.331000	1.628997
1.332000	1.660884
1.333000	1.677955
1.334000	1.682142
1.335000	1.664105
1.336000	1.661206
1.337000	1.663139
1.338000	1.645745
1.339000	1.596787
1.340000	1.573918
1.341000	1.569087
1.342000	1.553304
1.343000	1.550083
1.344000	1.528503
1.345000	1.526248
1.346000	1.527215
1.347000	1.534623
1.348000	1.531080
1.349000	1.542997
1.350000	1.531724
1.351000	1.512076
1.352000	1.491784
1.353000	1.481155
1.354000	1.519162
1.355000	1.549761
1.356000	1.595821
1.357000	1.673124
1.358000	1.724337
1.359000	1.783280
1.360000	1.810658
1.361000	1.785535
1.362000	1.720471
1.363000	1.636083
1.364000	1.557814
1.365000	1.510144
1.366000	1.479545
1.367000	1.461830
1.368000	1.444436
1.369000	1.431553
1.370000	1.436384
1.371000	1.437350
1.372000	1.450234
1.373000	1.480833
1.374000	1.510788
1.375000	1.537844
1.376000	1.574563
1.377000	1.606128
1.378000	1.583259
1.379000	1.577461
1.380000	1.592600
1.381000	1.620622
1.382000	1.646712
1.383000	1.639626
1.384000	1.645101
1.385000	1.641558
1.386000	1.616113
1.387000	1.589701
1.388000	1.599042
1.389000	1.589057
1.390000	1.570697
1.391000	1.544608
1.392000	1.523350
1.393000	1.486309
1.394000	1.485987
1.395000	1.497904
1.396000	1.493717
1.397000	1.502091
1.398000	1.507889
1.399000	1.519484
1.400000	1.536233
1.401000	1.553949
1.402000	1.560390
1.403000	1.566510
1.404000	1.578428
1.405000	1.580682
1.406000	1.579394
1.407000	1.585514
1.408000	1.561679
1.409000	1.542675
1.410000	1.547185
1.411000	1.567154
1.412000	1.594532
1.413000	1.607416
1.414000	1.590345
1.415000	1.587768
1.416000	1.575207
1.417000	1.549117
1.418000	1.563933
1.419000	1.600652
1.420000	1.625776
1.421000	1.611926
1.422000	1.553304
1.423000	1.512076
1.424000	1.476324
1.425000	1.448302
1.426000	1.441215
1.427000	1.456998
1.428000	1.500481
1.429000	1.607416
1.430000	1.748494
1.431000	1.853497
1.432000	1.905998
1.433000	1.899878
1.434000	1.823542
1.435000	1.741085
1.436000	1.662816
1.437000	1.603229
1.438000	1.563933
1.439000	1.506279
1.440000	1.487275
1.441000	1.495005
1.442000	1.484376
1.443000	1.478256
1.444000	1.449590
1.445000	1.447657
1.446000	1.469882
1.447000	1.494683
1.448000	1.515941
1.449000	1.518518
1.450000	1.540098
1.451000	1.546218
1.452000	1.560068
1.453000	1.570053
1.454000	1.575851
1.455000	1.525926
1.456000	1.477290
1.457000	1.457642
1.458000	1.438961
1.459000	1.480189
1.460000	1.553626
1.461000	1.624165
1.462000	1.666037
1.463000	1.684075
1.464000	1.659918
1.465000	1.615147
1.466000	1.589057
1.467000	1.562645
1.468000	1.537522
1.469000	1.503702
1.470000	1.498870
1.471000	1.532690
1.472000	1.540421
1.473000	1.541065
1.474000	1.552982
1.475000	1.532690
1.476000	1.540421
1.477000	1.565544
1.478000	1.578750
1.479000	1.581971
1.480000	1.579716
1.481000	1.557492
1.482000	1.524638
1.483000	1.554271
1.484000	1.616757
1.485000	1.649611
1.486000	1.640592
1.487000	1.588091
1.488000	1.468271
1.489000	1.405463
1.490000	1.395478
1.491000	1.407396
1.492000	1.490818
1.493000	1.558458
1.494000	1.638337
1.495000	1.688262
1.496000	1.658629
1.497000	1.602263
1.498000	1.584548
1.499000	1.584225
1.500000	1.620944
1.501000	1.662494
1.502000	1.692127
1.503000	1.692127
1.504000	1.696314
1.505000	1.698569
1.506000	1.688262
1.507000	1.690839
1.508000	1.648966
1.509000	1.601941
1.510000	1.578428
1.511000	1.576173
1.512000	1.548473
1.513000	1.526571
1.514000	1.535911
1.515000	1.565866
1.516000	1.596465
1.517000	1.571020
1.518000	1.494683
1.519000	1.428976
1.520000	1.431231
1.521000	1.493395
1.522000	1.570053
1.523000	1.623843
1.524000	1.676344
1.525000	1.716606
1.526000	1.695992
1.527000	1.629963
1.528000	1.515297
1.529000	1.418991
1.530000	1.381950
1.531000	1.380662
1.532000	1.395478
1.533000	1.422212
1.534000	1.438639
1.535000	1.452167
1.536000	1.452811
1.537000	1.447979
1.538000	1.497260
1.539000	1.564256
1.540000	1.607738
1.541000	1.610959
1.542000	1.590345
1.543000	1.570697
1.544000	1.589379
1.545000	1.599364
1.546000	1.590667
1.547000	1.563933
1.548000	1.566188
1.549000	1.574885
1.550000	1.592600
1.551000	1.586802
1.552000	1.597753
1.553000	1.582615
1.554000	1.597109
1.555000	1.623521
1.556000	1.633828
1.557000	1.611926
1.558000	1.613858
1.559000	1.625776
1.560000	1.623199
1.561000	1.606450
1.562000	1.585836
1.563000	1.589379
1.564000	1.599042
1.565000	1.594210
1.566000	1.614502
1.567000	1.679888
1.568000	1.747527
1.569000	1.764276
1.570000	1.735932
1.571000	1.705977
1.572000	1.658307
1.573000	1.644135
1.574000	1.604517
1.575000	1.553949
1.576000	1.519162
1.577000	1.478901
1.578000	1.442826
1.579000	1.430908
1.580000	1.419313
1.581000	1.430908
1.582000	1.458286
1.583000	1.512076
1.584000	1.535267
1.585000	1.525604
1.586000	1.510144
1.587000	1.475680
1.588000	1.455388
1.589000	1.467305
1.590000	1.495005
1.591000	1.546540
1.592000	1.603551
1.593000	1.675700
1.594000	1.724337
1.595000	1.720149
1.596000	1.718539
1.597000	1.692127
1.598000	1.652187
1.599000	1.580038
1.600000	1.514009
1.601000	1.452167
1.602000	1.401920
1.603000	1.387426
1.604000	1.414160
1.605000	1.453455
1.606000	1.542353
1.607000	1.638659
1.608000	1.727558
1.609000	1.735932
1.610000	1.730456
1.611000	1.701790
1.612000	1.646390
1.613000	1.573274
1.614000	1.469882
1.615000	1.417380
1.616000	1.450878
1.617000	1.477290
1.618000	1.481155
1.619000	1.476002
1.620000	1.484054
1.621000	1.498226
1.622000	1.466661
1.623000	1.437350
1.624000	1.480511
1.625000	1.576173
1.626000	1.672479
1.627000	1.741085
1.628000	1.763632
1.629000	1.779415
1.630000	1.750426
1.631000	1.654120
1.632000	1.591634
1.633000	1.519162
1.634000	1.485987
1.635000	1.504668
1.636000	1.560068
1.637000	1.634472
1.638000	1.667970
1.639000	1.655730
1.640000	1.613858
1.641000	1.592922
1.642000	1.531080
1.643000	1.493073
1.644000	1.513365
1.645000	1.550406
1.646000	1.578106
1.647000	1.597431
1.648000	1.602585
1.649000	1.601619
1.650000	1.581327
1.651000	1.539776
1.652000	1.493717
1.653000	1.463118
1.654000	1.452811
1.655000	1.495972
1.656000	1.573596
1.657000	1.644457
1.658000	1.657019
1.659000	1.641236
1.660000	1.640270
1.661000	1.643491
1.662000	1.612570
1.663000	1.533012
1.664000	1.504024
1.665000	1.511110
1.666000	1.523994
1.667000	1.522061
1.668000	1.505956
1.669000	1.502736
1.670000	1.504346
1.671000	1.512398
1.672000	1.540421
1.673000	1.539454
1.674000	1.515941
1.675000	1.498548
1.676000	1.516586
1.677000	1.536233
1.678000	1.536878
1.679000	1.563289
1.680000	1.625776
1.681000	1.677633
1.682000	1.666360
1.683000	1.639948
1.684000	1.613536
1.685000	1.551372
1.686000	1.484376
1.687000	1.445403
1.688000	1.466017
1.689000	1.554271
1.690000	1.664749
1.691000	1.711775
1.692000	1.739475
1.693000	1.712097
1.694000	1.635116
1.695000	1.552660
1.696000	1.510788
1.697000	1.515941
1.698000	1.526893
1.699000	1.532690
1.700000	1.534623
1.701000	1.543964
1.702000	1.566832
1.703000	1.586802
1.704000	1.577139
1.705000	1.570053
1.706000	1.579072
1.707000	1.612892
1.708000	1.620944
1.709000	1.626420
1.710000	1.588413
1.711000	1.526893
1.712000	1.494361
1.713000	1.504990
1.714000	1.562001
1.715000	1.633506
1.716000	1.712419
1.717000	1.755902
1.718000	1.759767
1.719000	1.747527
1.720000	1.658951
1.721000	1.538166
1.722000	1.449268
1.723000	1.395156
1.724000	1.431875
1.725000	1.474713
1.726000	1.497260
1.727000	1.482766
1.728000	1.493073
1.729000	1.505312
1.730000	1.479223
1.731000	1.460541
1.732000	1.492106
1.733000	1.515619
1.734000	1.507889
1.735000	1.532690
1.736000	1.565544
1.737000	1.597431
1.738000	1.609027
1.739000	1.625131
1.740000	1.615147
1.741000	1.616757
1.742000	1.663139
1.743000	1.671835
1.744000	1.632218
1.745000	1.593244
1.746000	1.532046
1.747000	1.486309
1.748000	1.515941
1.749000	1.565544
1.750000	1.609349
1.751000	1.659273
1.752000	1.669903
1.753000	1.669903
1.754000	1.620300
1.755000	1.605162
1.756000	1.592922
1.757000	1.565544
1.758000	1.499837
1.759000	1.472459
1.760000	1.466339
1.761000	1.489852
1.762000	1.535267
1.763000	1.540421
1.764000	1.500481
1.765000	1.513687
1.766000	1.543642
1.767000	1.573596
1.768000	1.575529
1.769000	1.566510
1.770000	1.558136
1.771000	1.553949
1.772000	1.553626
1.773000	1.545252
1.774000	1.555559
1.775000	1.578750
1.776000	1.583581
1.777000	1.602585
1.778000	1.650899
1.779000	1.653476
1.780000	1.650255
1.781000	1.686007
1.782000	1.713707
1.783000	1.745917
1.784000	1.773295
1.785000	1.726269
1.786000	1.614824
1.787000	1.490174
1.788000	1.399021
1.789000	1.358437
1.790000	1.359726
1.791000	1.388392
1.792000	1.437028
1.793000	1.456998
1.794000	1.474069
1.795000	1.526571
1.796000	1.551050
1.797000	1.541709
1.798000	1.549439
1.799000	1.600008
1.800000	1.643813
1.801000	1.677955
1.802000	1.737220
1.803000	1.771040
1.804000	1.779093
1.805000	1.740119
1.806000	1.701468
1.807000	1.653154
1.808000	1.592922
1.809000	1.511110
1.810000	1.440571
1.811000	1.413837
1.812000	1.440893
1.813000	1.500803
1.814000	1.551050
1.815000	1.627064
1.816000	1.657985
1.817000	1.657341
1.818000	1.638981
1.819000	1.624165
1.820000	1.571986
1.821000	1.487597
1.822000	1.408684
1.823000	1.349419
1.824000	1.389358
1.825000	1.506923
1.826000	1.540421
1.827000	1.560713
1.828000	1.572952
1.829000	1.576817
1.830000	1.548795
1.831000	1.519807
1.832000	1.530436
1.833000	1.560390
1.834000	1.546540
1.835000	1.527859
1.836000	1.500159
1.837000	1.466017
1.838000	1.448624
1.839000	1.476646
1.840000	1.518196
1.841000	1.586802
1.842000	1.632540
1.843000	1.644779
1.844000	1.636405
1.845000	1.632540
1.846000	1.649611
1.847000	1.663139
1.848000	1.665393
1.849000	1.668614
1.850000	1.687296
1.851000	1.691805
1.852000	1.601941
1.853000	1.474713
1.854000	1.437028
1.855000	1.473103
1.856000	1.516263
1.857000	1.521739
1.858000	1.523994
1.859000	1.557492
1.860000	1.587768
1.861000	1.639304
1.862000	1.719183
1.863000	1.773939
1.864000	1.757512
1.865000	1.706621
1.866000	1.627708
1.867000	1.522383
1.868000	1.414160
1.869000	1.320752
1.870000	1.313988
1.871000	1.394512
1.872000	1.473103
1.873000	1.544286
1.874000	1.620622
1.875000	1.657985
1.876000	1.648000
1.877000	1.634472
1.878000	1.610959
1.879000	1.581971
1.880000	1.558136
1.881000	1.537844
1.882000	1.533334
1.883000	1.548795
1.884000	1.541387
1.885000	1.515941
1.886000	1.466983
1.887000	1.424144
1.888000	1.455388
1.889000	1.530436
1.890000	1.590989
1.891000	1.639304
1.892000	1.661850
1.893000	1.670547
1.894000	1.682464
1.895000	1.686651
1.896000	1.677955
1.897000	1.663139
1.898000	1.603229
1.899000	1.567477
1.900000	1.533334
1.901000	1.487275
1.902000	1.483732
1.903000	1.503380
1.904000	1.577784
1.905000	1.609349
1.906000	1.551372
1.907000	1.503380
1.908000	1.535589
1.909000	1.589701
1.910000	1.607416
1.911000	1.610315
1.912000	1.619012
1.913000	1.607738
1.914000	1.548795
1.915000	1.500159
1.916000	1.447657
1.917000	1.461507
1.918000	1.566188
1.919000	1.645745
1.920000	1.710809
1.921000	1.766853
1.922000	1.761055
1.923000	1.715640
1.924000	1.678921
1.925000	1.676989
1.926000	1.678599
1.927000	1.688584
1.928000	1.680854
1.929000	1.674412
1.930000	1.639948
1.931000	1.611603
1.932000	1.577461
1.933000	1.496616
1.934000	1.424144
1.935000	1.421568
1.936000	1.430908
1.937000	1.479867
1.938000	1.525604
1.939000	1.508211
1.940000	1.490174
1.941000	1.495649
1.942000	1.504668
1.943000	1.490174
1.944000	1.473103
1.945000	1.471814
1.946000	1.450234
1.947000	1.406107
1.948000	1.396766
1.949000	1.417703
1.950000	1.436706
1.951000	1.512076
1.952000	1.581971
1.953000	1.604839
1.954000	1.632862
1.955000	1.657985
1.956000	1.669258
1.957000	1.629641
1.958000	1.605484
1.959000	1.584225
1.960000	1.596143
1.961000	1.604195
1.962000	1.570053
1.963000	1.559746
1.964000	1.591956
1.965000	1.658629
1.966000	1.688262
1.967000	1.712097
1.968000	1.664427
1.969000	1.586158
1.970000	1.510466
1.971000	1.509177
1.972000	1.515619
1.973000	1.525604
1.974000	1.542031
1.975000	1.573274
1.976000	1.578428
1.977000	1.562645
1.978000	1.536878
1.979000	1.569731
1.980000	1.609027
1.981000	1.641236
1.982000	1.664749
1.983000	1.689550
1.984000	1.688584
1.985000	1.667004
1.986000	1.658951
1.987000	1.672157
1.988000	1.697925
1.989000	1.718217
1.990000	1.724014
1.991000	1.740763
1.992000	1.745917
1.993000	1.708232
1.994000	1.641558
1.995000	1.579394
1.996000	1.514975
1.997000	1.441860
1.998000	1.377763
1.999000	1.336535
2.000000	1.306580
2.001000	1.324617
2.002000	1.368100
2.003000	1.422534
2.004000	1.442504
2.005000	1.464728
2.006000	1.439927
2.007000	1.426077
2.008000	1.439927
2.009000	1.501769
2.010000	1.517230
2.011000	1.498548
2.012000	1.503702
2.013000	1.564578
2.014000	1.626742
2.015000	1.649289
2.016000	1.653476
2.017000	1.643813
2.018000	1.589057
2.019000	1.547185
2.020000	1.543319
2.021000	1.587124
2.022000	1.656375
2.023000	1.688584
2.024000	1.695992
2.025000	1.665393
2.026000	1.609993
2.027000	1.607094
2.028000	1.613214
2.029000	1.605806
2.030000	1.578750
2.031000	1.536555
2.032000	1.470526
2.033000	1.469238
2.034000	1.509177
2.035000	1.584548
2.036000	1.637371
2.037000	1.657019
2.038000	1.668292
2.039000	1.638659
2.040000	1.590345
2.041000	1.544608
2.042000	1.535911
2.043000	1.536233
2.044000	1.531724
2.045000	1.565222
2.046000	1.612892
2.047000	1.643169
2.048000	1.631573
2.049000	1.595499
2.050000	1.512398
2.051000	1.446691
2.052000	1.412227
2.053000	1.388392
2.054000	1.403208
2.055000	1.453455
2.056000	1.549117
2.057000	1.651221
2.058000	1.700179
2.059000	1.734644
2.060000	1.757190
2.061000	1.762666
2.062000	1.736254
2.063000	1.703078
2.064000	1.674090
2.065000	1.655730
2.066000	1.663461
2.067000	1.632540
2.068000	1.582615
2.069000	1.561679
2.070000	1.572308
2.071000	1.516586
2.072000	1.459897
2.073000	1.412549
2.074000	1.404175
2.075000	1.424467
2.076000	1.441538
2.077000	1.492428
2.078000	1.548151
2.079000	1.566832
2.080000	1.571020
2.081000	1.566188
2.082000	1.563611
2.083000	1.567799
2.084000	1.571986
2.085000	1.587124
2.086000	1.614824
2.087000	1.665071
2.088000	1.696636
2.089000	1.678277
2.090000	1.647356
2.091000	1.596787
2.092000	1.513043
2.093000	1.473425
2.094000	1.460863
2.095000	1.442826
2.096000	1.423178
2.097000	1.441215
2.098000	1.460219
2.099000	1.484054
2.100000	1.524638
2.101000	1.553949
2.102000	1.559424
2.103000	1.531402
2.104000	1.500159
2.105000	1.464084
2.106000	1.471170
2.107000	1.481477
2.108000	1.509499
2.109000	1.587446
2.110000	1.674412
2.111000	1.795519
2.112000	1.851886
2.113000	1.848665
2.114000	1.810658
2.115000	1.723370
2.116000	1.640592
2.117000	1.549761
2.118000	1.465695
2.119000	1.418347
2.120000	1.426399
2.121000	1.478256
2.122000	1.524960
2.123000	1.539454
2.124000	1.510788
2.125000	1.472459
2.126000	1.466661
2.127000	1.478901
2.128000	1.512720
2.129000	1.581327
2.130000	1.668614
2.131000	1.704689
2.132000	1.692449
2.133000	1.651543
2.134000	1.631251
2.135000	1.662172
2.136000	1.662816
2.137000	1.631251
2.138000	1.620944
2.139000	1.575851
2.140000	1.556525
2.141000	1.514331
2.142000	1.488885
2.143000	1.514009
2.144000	1.611603
2.145000	1.743984
2.146000	1.832560
2.147000	1.887639
2.148000	1.881841
2.149000	1.832882
2.150000	1.749138
2.151000	1.628352
2.152000	1.492428
2.153000	1.368422
2.154000	1.292730
2.155000	1.263741
2.156000	1.275337
2.157000	1.308835
2.158000	1.390969
2.159000	1.482444
2.160000	1.582615
2.161000	1.620622
2.162000	1.635761
2.163000	1.671513
2.164000	1.694704
2.165000	1.702434
2.166000	1.712741
2.167000	1.716606
2.168000	1.705977
2.169000	1.699535
2.170000	1.634794
2.171000	1.536233
2.172000	1.466339
2.173000	1.423822
2.174000	1.394834
2.175000	1.403208
2.176000	1.423822
2.177000	1.463440
2.178000	1.467305
2.179000	1.475357
2.180000	1.479867
2.181000	1.472781
2.182000	1.496938
2.183000	1.502736
2.184000	1.510144
2.185000	1.500159
2.186000	1.490496
2.187000	1.490174
2.188000	1.495005
2.189000	1.510466
2.190000	1.511110
2.191000	1.499837
2.192000	1.537522
2.193000	1.571986
2.194000	1.602263
2.195000	1.621910
2.196000	1.628997
2.197000	1.635438
2.198000	1.602263
2.199000	1.596787
2.200000	1.615791
2.201000	1.652832
2.202000	1.672479
2.203000	1.684719
2.204000	1.683753
2.205000	1.668292
2.206000	1.653798
2.207000	1.628997
2.208000	1.614824
2.209000	1.662816
2.210000	1.724337
2.211000	1.766853
2.212000	1.758479
2.213000	1.700824
2.214000	1.666037
2.215000	1.617723
2.216000	1.537844
2.217000	1.489530
2.218000	1.461185
2.219000	1.473425
2.220000	1.482766
2.221000	1.444114
2.222000	1.427688
2.223000	1.440893
2.224000	1.457642
2.225000	1.504990
2.226000	1.547185
2.227000	1.563611
2.228000	1.571020
2.229000	1.587124
2.230000	1.608383
2.231000	1.624487
2.232000	1.642202
2.233000	1.684397
2.234000	1.750104
2.235000	1.826763
2.236000	1.948514
2.237000	2.007780
2.238000	1.976215
2.239000	1.860583
2.240000	1.714996
2.241000	1.584548
2.242000	1.453777
2.243000	1.342332
2.244000	1.302715
2.245000	1.311411
2.246000	1.334280
2.247000	1.322041
2.248000	1.312378
2.249000	1.329771
2.250000	1.377119
2.251000	1.474069
2.252000	1.531402
2.253000	1.579072
2.254000	1.575207
2.255000	1.549761
2.256000	1.545252
2.257000	1.559102
2.258000	1.581004
2.259000	1.592278
2.260000	1.581649
2.261000	1.590667
2.262000	1.614180
2.263000	1.605484
2.264000	1.601941
2.265000	1.607094
2.266000	1.599042
2.267000	1.586802
2.268000	1.563289
2.269000	1.541387
2.270000	1.542997
2.271000	1.544930
2.272000	1.600330
2.273000	1.643813
2.274000	1.615147
2.275000	1.588091
2.276000	1.548151
2.277000	1.525282
2.278000	1.517552
2.279000	1.535589
2.280000	1.563611
2.281000	1.571020
2.282000	1.570053
2.283000	1.556525
2.284000	1.549117
2.285000	1.566188
2.286000	1.578428
2.287000	1.561357
2.288000	1.528825
2.289000	1.498548
2.290000	1.506279
2.291000	1.523027
2.292000	1.538488
2.293000	1.567477
2.294000	1.575529
2.295000	1.585836
2.296000	1.595499
2.297000	1.605484
2.298000	1.629641
2.299000	1.630607
2.300000	1.603229
2.301000	1.590989
2.302000	1.600974
2.303000	1.626420
2.304000	1.647034
2.305000	1.669258
2.306000	1.690839
2.307000	1.714996
2.308000	1.757834
2.309000	1.753325
2.310000	1.703078
2.311000	1.681498
2.312000	1.617401
2.313000	1.539454
2.314000	1.457642
2.315000	1.405785
2.316000	1.384205
2.317000	1.382272
2.318000	1.443148
2.319000	1.499515
2.320000	1.523027
2.321000	1.529469
2.322000	1.543319
2.323000	1.571020
2.324000	1.589379
2.325000	1.631251
2.326000	1.681820
2.327000	1.717573
2.328000	1.709520
2.329000	1.654764
2.330000	1.589057
2.331000	1.522061
2.332000	1.463118
2.333000	1.422534
2.334000	1.401920
2.335000	1.410294
2.336000	1.417703
2.337000	1.425111
2.338000	1.462796
2.339000	1.537522
2.340000	1.593244
2.341000	1.620622
2.342000	1.655730
2.343000	1.644135
2.344000	1.642525
2.345000	1.651865
2.346000	1.668614
2.347000	1.634794
2.348000	1.555881
2.349000	1.496616
2.350000	1.470204
2.351000	1.479867
2.352000	1.493717
2.353000	1.515941
2.354000	1.523672
2.355000	1.520773
2.356000	1.526248
2.357000	1.539132
2.358000	1.557169
2.359000	1.604517
2.360000	1.687618
2.361000	1.771362
2.362000	1.843834
2.363000	1.862837
2.364000	1.833205
2.365000	1.750748
2.366000	1.652509
2.367000	1.588091
2.368000	1.499192
2.369000	1.414482
2.370000	1.387426
2.371000	1.410939
2.372000	1.465050
2.373000	1.512076
2.374000	1.539776
2.375000	1.546218
2.376000	1.573918
2.377000	1.603229
2.378000	1.639304
2.379000	1.629319
2.380000	1.628352
2.381000	1.625454
2.382000	1.614180
2.383000	1.565222
2.384000	1.495005
2.385000	1.446047
2.386000	1.401920
2.387000	1.395800
2.388000	1.450878
2.389000	1.513365
2.390000	1.542997
2.391000	1.555881
2.392000	1.553949
2.393000	1.573596
2.394000	1.597431
2.395000	1.619334
2.396000	1.672801
2.397000	1.698247
2.398000	1.682786
2.399000	1.655730
2.400000	1.628674
2.401000	1.599686
2.402000	1.565866
2.403000	1.522705
2.404000	1.461507
2.405000	1.474391
2.406000	1.510144
2.407000	1.542031
2.408000	1.567154
2.409000	1.570053
2.410000	1.544608
2.411000	1.511432
2.412000	1.488563
2.413000	1.473747
2.414000	1.495327
2.415000	1.555559
2.416000	1.598075
2.417000	1.647034
2.418000	1.675700
2.419000	1.696314
2.420000	1.708876
2.421000	1.738187
2.422000	1.753003
2.423000	1.707266
2.424000	1.610315
2.425000	1.532690
2.426000	1.516908
2.427000	1.525926
2.428000	1.568443
2.429000	1.572308
2.430000	1.583581
2.431000	1.572630
2.432000	1.569409
2.433000	1.545252
2.434000	1.530114
2.435000	1.502736
2.436000	1.482444
2.437000	1.482444
2.438000	1.508533
2.439000	1.529147
2.440000	1.525282
2.441000	1.503380
2.442000	1.488563
2.443000	1.489208
2.444000	1.495327
2.445000	1.494683
2.446000	1.493717
2.447000	1.527859
2.448000	1.548151
2.449000	1.532690
2.450000	1.504024
2.451000	1.492106
2.452000	1.538488
2.453000	1.581004
2.454000	1.596465
2.455000	1.574885
2.456000	1.613214
2.457000	1.676667
2.458000	1.717250
2.459000	1.714030
2.460000	1.742052
2.461000	1.769430
2.462000	1.794553
2.463000	1.758479
2.464000	1.676989
2.465000	1.571664
2.466000	1.437995
2.467000	1.347164
2.468000	1.305614
2.469000	1.331381
2.470000	1.475680
2.471000	1.640592
2.472000	1.785212
2.473000	1.849631
2.474000	1.797452
2.475000	1.738831
2.476000	1.682786
2.477000	1.648000
2.478000	1.597431
2.479000	1.532046
2.480000	1.510788
2.481000	1.531402
2.482000	1.552982
2.483000	1.569087
2.484000	1.570053
2.485000	1.553949
2.486000	1.548473
2.487000	1.565222
2.488000	1.563289
2.489000	1.510788
2.490000	1.454099
2.491000	1.455388
2.492000	1.485665
2.493000	1.526893
2.494000	1.576817
2.495000	1.600008
2.496000	1.594210
2.497000	1.590345
2.498000	1.576495
2.499000	1.563933
2.500000	1.541387
2.501000	1.509499
2.502000	1.468271
2.503000	1.431875
2.504000	1.424144
2.505000	1.449912
2.506000	1.493717
2.507000	1.501447
2.508000	1.509822
2.509000	1.522705
2.510000	1.560068
2.511000	1.609349
2.512000	1.620300
2.513000	1.621910
2.514000	1.589057
2.515000	1.496938
2.516000	1.427365
2.517000	1.396766
2.518000	1.443470
2.519000	1.522705
2.520000	1.611281
2.521000	1.698891
2.522000	1.738831
2.523000	1.714996
2.524000	1.688584
2.525000	1.672157
2.526000	1.654764
2.527000	1.626098
2.528000	1.608705
2.529000	1.609349
2.530000	1.614824
2.531000	1.624487
2.532000	1.596143
2.533000	1.599686
2.534000	1.599042
2.535000	1.583259
2.536000	1.586158
2.537000	1.600652
2.538000	1.651221
2.539000	1.688584
2.540000	1.762666
2.541000	1.867991
2.542000	1.936597
2.543000	1.904065
2.544000	1.811302
2.545000	1.719183
2.546000	1.619978
2.547000	1.480511
2.548000	1.330737
2.549000	1.273726
2.550000	1.269861
2.551000	1.272116
2.552000	1.278236
2.553000	1.338467
2.554000	1.416414
2.555000	1.473425
2.556000	1.537200
2.557000	1.595499
2.558000	1.618045
2.559000	1.565222
2.560000	1.487597
2.561000	1.431875
2.562000	1.439927
2.563000	1.487919
2.564000	1.552982
2.565000	1.565222
2.566000	1.577139
2.567000	1.598075
2.568000	1.588091
2.569000	1.564900
2.570000	1.558136
2.571000	1.571342
2.572000	1.552016
2.573000	1.502413
2.574000	1.464728
2.575000	1.445403
2.576000	1.484376
2.577000	1.567799
2.578000	1.666682
2.579000	1.700824
2.580000	1.710164
2.581000	1.717250
2.582000	1.728846
2.583000	1.747849
2.584000	1.712741
2.585000	1.695348
2.586000	1.656053
2.587000	1.575207
2.588000	1.508211
2.589000	1.469882
2.590000	1.475357
2.591000	1.507889
2.592000	1.560713
2.593000	1.600330
2.594000	1.668936
2.595000	1.726269
2.596000	1.755902
2.597000	1.752681
2.598000	1.699213
2.599000	1.648000
2.600000	1.579072
2.601000	1.542675
2.602000	1.503058
2.603000	1.509822
2.604000	1.514009
2.605000	1.525926
2.606000	1.493395
2.607000	1.425433
2.608000	1.449268
2.609000	1.540421
2.610000	1.608383
2.611000	1.593888
2.612000	1.590345
2.613000	1.571986
2.614000	1.525926
2.615000	1.485665
2.616000	1.456032
2.617000	1.456354
2.618000	1.479867
2.619000	1.507567
2.620000	1.535589
2.621000	1.548473
2.622000	1.552982
2.623000	1.540098
2.624000	1.487597
2.625000	1.463440
2.626000	1.491140
2.627000	1.547829
2.628000	1.591634
2.629000	1.636083
2.630000	1.646712
2.631000	1.634794
2.632000	1.622555
2.633000	1.575851
2.634000	1.538166
2.635000	1.497904
2.636000	1.515619
2.637000	1.581971
2.638000	1.678599
2.639000	1.717573
2.640000	1.718861
2.641000	1.737542
2.642000	1.659596
2.643000	1.572952
2.644000	1.506923
2.645000	1.496938
2.646000	1.535589
2.647000	1.543642
2.648000	1.561035
2.649000	1.596465
2.650000	1.619334
2.651000	1.648322
2.652000	1.669903
2.653000	1.626098
2.654000	1.553304
2.655000	1.493073
2.656000	1.453455
2.657000	1.445081
2.658000	1.501447
2.659000	1.546540
2.660000	1.556525
2.661000	1.555559
2.662000	1.562967
2.663000	1.619656
2.664000	1.659918
2.665000	1.673124
2.666000	1.691161
2.667000	1.695348
2.668000	1.690839
2.669000	1.629641
2.670000	1.570375
2.671000	1.534945
2.672000	1.535267
2.673000	1.574240
2.674000	1.600974
2.675000	1.625454
2.676000	1.612892
2.677000	1.552016
2.678000	1.472781
2.679000	1.411261
2.680000	1.397089
2.681000	1.443148
2.682000	1.434774
2.683000	1.492428
2.684000	1.587124
2.685000	1.623521
2.686000	1.577461
2.687000	1.524316
2.688000	1.483410
2.689000	1.459897
2.690000	1.436384
2.691000	1.432197
2.692000	1.442826
2.693000	1.491784
2.694000	1.523672
2.695000	1.574240
2.696000	1.625776
2.697000	1.657663
2.698000	1.671191
2.699000	1.726591
2.700000	1.755580
2.701000	1.790044
2.702000	1.810980
2.703000	1.777804
2.704000	1.716284
2.705000	1.639304
2.706000	1.571342
2.707000	1.531080
2.708000	1.510788
2.709000	1.523672
2.710000	1.533012
2.711000	1.559424
2.712000	1.597753
2.713000	1.596465
2.714000	1.530114
2.715000	1.472781
2.716000	1.445403
2.717000	1.452167
2.718000	1.472459
2.719000	1.498870
2.720000	1.500159
2.721000	1.514975
2.722000	1.539132
2.723000	1.549439
2.724000	1.544608
2.725000	1.563289
2.726000	1.566832
2.727000	1.577461
2.728000	1.577139
2.729000	1.548473
2.730000	1.577139
2.731000	1.616757
2.732000	1.642525
2.733000	1.632862
2.734000	1.616757
2.735000	1.605162
2.736000	1.587446
2.737000	1.605162
2.738000	1.617723
2.739000	1.614824
2.740000	1.624165
2.741000	1.625131
2.742000	1.591956
2.743000	1.561035
2.744000	1.549439
2.745000	1.580038
2.746000	1.606772
2.747000	1.612892
2.748000	1.538166
2.749000	1.502736
2.750000	1.517874
2.751000	1.543642
2.752000	1.548151
2.753000	1.579072
2.754000	1.614502
2.755000	1.658307
2.756000	1.680854
2.757000	1.673124
2.758000	1.597431
2.759000	1.480511
2.760000	1.377119
2.761000	1.345876
2.762000	1.354250
2.763000	1.436706
2.764000	1.541709
2.765000	1.664427
2.766000	1.753969
2.767000	1.783924
2.768000	1.778126
2.769000	1.709842
2.770000	1.643813
2.771000	1.587768
2.772000	1.539132
2.773000	1.508533
2.774000	1.475680
2.775000	1.473747
2.776000	1.473103
2.777000	1.454421
2.778000	1.460541
2.779000	1.467627
2.780000	1.500803
2.781000	1.504668
2.782000	1.533334
2.783000	1.628352
2.784000	1.690839
2.785000	1.716284
2.786000	1.703078
2.787000	1.678599
2.788000	1.656053
2.789000	1.618690
2.790000	1.585836
2.791000	1.533012
2.792000	1.512398
2.793000	1.502413
2.794000	1.473747
2.795000	1.441215
2.796000	1.472459
2.797000	1.523027
2.798000	1.559102
2.799000	1.566510
2.800000	1.549439
2.801000	1.537200
2.802000	1.527215
2.803000	1.511754
2.804000	1.484698
2.805000	1.469238
2.806000	1.453777
2.807000	1.477290
2.808000	1.542675
2.809000	1.582937
2.810000	1.620944
2.811000	1.673124
2.812000	1.715962
2.813000	1.726591
2.814000	1.727235
2.815000	1.695348
2.816000	1.668936
2.817000	1.643813
2.818000	1.621588
2.819000	1.592278
2.820000	1.567799
2.821000	1.570697
2.822000	1.574563
2.823000	1.569087
2.824000	1.582937
2.825000	1.574885
2.826000	1.587768
2.827000	1.579716
2.828000	1.567154
2.829000	1.556847
2.830000	1.599042
2.831000	1.651865
2.832000	1.648000
2.833000	1.625131
2.834000	1.537200
2.835000	1.456998
2.836000	1.402564
2.837000	1.391935
2.838000	1.436062
2.839000	1.514331
2.840000	1.562323
2.841000	1.597431
2.842000	1.609027
2.843000	1.599364
2.844000	1.575207
2.845000	1.557492
2.846000	1.531402
2.847000	1.471814
2.848000	1.446047
2.849000	1.461185
2.850000	1.479223
2.851000	1.498226
2.852000	1.503058
2.853000	1.530436
2.854000	1.589379
2.855000	1.627064
2.856000	1.650255
2.857000	1.676344
2.858000	1.695992
2.859000	1.748816
2.860000	1.764598
2.861000	1.758801
2.862000	1.709842
2.863000	1.649611
2.864000	1.587768
2.865000	1.529469
2.866000	1.512720
2.867000	1.524960
2.868000	1.519807
2.869000	1.543964
2.870000	1.572308
2.871000	1.572630
2.872000	1.573596
2.873000	1.566188
2.874000	1.560390
2.875000	1.545252
2.876000	1.520773
2.877000	1.528503
2.878000	1.546218
2.879000	1.557492
2.880000	1.542675
2.881000	1.498226
2.882000	1.467627
2.883000	1.447013
2.884000	1.443792
2.885000	1.449590
2.886000	1.495649
2.887000	1.581004
2.888000	1.655086
2.889000	1.742052
2.890000	1.769752
2.891000	1.745273
2.892000	1.706299
2.893000	1.604839
2.894000	1.545896
2.895000	1.526893
2.896000	1.565222
2.897000	1.582937
2.898000	1.601619
2.899000	1.602263
2.900000	1.567477
2.901000	1.536555
2.902000	1.511432
2.903000	1.474391
2.904000	1.445725
2.905000	1.487275
2.906000	1.530758
2.907000	1.556203
2.908000	1.543642
2.909000	1.539776
2.910000	1.543642
2.911000	1.542031
2.912000	1.516908
2.913000	1.521739
2.914000	1.571342
2.915000	1.594855
2.916000	1.614502
2.917000	1.618045
2.918000	1.656375
2.919000	1.705011
2.920000	1.741730
2.921000	1.751715
2.922000	1.705655
2.923000	1.660562
2.924000	1.637693
2.925000	1.580682
2.926000	1.504346
2.927000	1.418991
2.928000	1.367134
2.929000	1.344587
2.930000	1.309801
2.931000	1.339434
2.932000	1.457964
2.933000	1.585514
2.934000	1.623199
2.935000	1.610315
2.936000	1.617723
2.937000	1.619656
2.938000	1.616435
2.939000	1.603873
2.940000	1.646390
2.941000	1.699213
2.942000	1.737542
2.943000	1.791976
2.944000	1.788111
2.945000	1.706621
2.946000	1.607738
2.947000	1.479867
2.948000	1.379051
2.949000	1.333314
2.950000	1.330415
2.951000	1.442182
2.952000	1.567799
2.953000	1.639626
2.954000	1.681176
2.955000	1.668292
2.956000	1.645423
2.957000	1.644457
2.958000	1.634472
2.959000	1.593888
2.960000	1.570375
2.961000	1.563611
2.962000	1.574885
2.963000	1.583581
2.964000	1.580682
2.965000	1.562001
2.966000	1.555237
2.967000	1.583581
2.968000	1.601619
2.969000	1.582293
2.970000	1.584225
2.971000	1.580360
2.972000	1.554271
2.973000	1.540098
2.974000	1.524960
2.975000	1.518196
2.976000	1.551694
2.977000	1.567154
2.978000	1.552660
2.979000	1.551694
2.980000	1.591956
2.981000	1.630607
2.982000	1.644779
2.983000	1.649289
2.984000	1.616113
2.985000	1.579394
2.986000	1.532690
2.987000	1.488885
2.988000	1.454421
2.989000	1.428654
2.990000	1.427365
2.991000	1.464406
2.992000	1.483732
2.993000	1.495327
2.994000	1.521739
2.995000	1.542031
2.996000	1.589701
2.997000	1.632218
2.998000	1.628674
2.999000	1.615147
3.000000	1.591956
3.001000	1.525926
3.002000	1.463762
3.003000	1.464084
3.004000	1.511754
3.005000	1.571664
3.006000	1.619978
3.007000	1.634150
3.008000	1.643813
3.009000	1.634794
3.010000	1.626742
3.011000	1.667004
3.012000	1.725303
3.013000	1.760089
3.014000	1.776516
3.015000	1.727235
3.016000	1.678599
3.017000	1.610637
3.018000	1.557169
3.019000	1.479545
3.020000	1.435418
3.021000	1.432519
3.022000	1.478901
3.023000	1.533979
3.024000	1.589701
3.025000	1.623843
3.026000	1.604517
3.027000	1.629963
3.028000	1.641558
3.029000	1.605484
3.030000	1.580038
3.031000	1.541387
3.032000	1.527859
3.033000	1.493395
3.034000	1.415448
3.035000	1.380018
3.036000	1.417058
3.037000	1.481799
3.038000	1.561357
3.039000	1.654764
3.040000	1.770396
3.041000	1.820643
3.042000	1.838036
3.043000	1.804538
3.044000	1.732067
3.045000	1.641880
3.046000	1.537200
3.047000	1.446369
3.048000	1.377119
3.049000	1.362624
3.050000	1.393223
3.051000	1.421246
3.052000	1.430586
3.053000	1.443792
3.054000	1.398377
3.055000	1.381950
3.056000	1.441860
3.057000	1.556203
3.058000	1.635116
3.059000	1.705977
3.060000	1.772007
3.061000	1.749782
3.062000	1.663139
3.063000	1.595499
3.064000	1.552338
3.065000	1.533334
3.066000	1.542353
3.067000	1.544930
3.068000	1.557814
3.069000	1.579394
3.070000	1.600330
3.071000	1.622233
3.072000	1.633184
3.073000	1.627064
3.074000	1.617401
3.075000	1.570375
3.076000	1.532046
3.077000	1.518518
3.078000	1.507245
3.079000	1.522383
3.080000	1.548795
3.081000	1.510788
3.082000	1.504024
3.083000	1.504990
3.084000	1.519807
3.085000	1.588413
3.086000	1.676344
3.087000	1.739153
3.088000	1.721760
3.089000	1.659273
3.090000	1.591956
3.091000	1.515297
3.092000	1.469882
3.093000	1.483410
3.094000	1.529147
3.095000	1.583259
3.096000	1.595177
3.097000	1.580360
3.098000	1.616113
3.099000	1.683431
3.100000	1.732389
3.101000	1.743340
3.102000	1.728846
3.103000	1.685041
3.104000	1.645745
3.105000	1.591956
3.106000	1.564578
3.107000	1.548151
3.108000	1.509177
3.109000	1.492106
3.110000	1.532690
3.111000	1.539776
3.112000	1.524316
3.113000	1.485342
3.114000	1.433807
3.115000	1.428332
3.116000	1.442504
3.117000	1.430908
3.118000	1.437672
3.119000	1.462474
3.120000	1.526248
3.121000	1.589379
3.122000	1.617079
3.123000	1.629319
3.124000	1.598398
3.125000	1.576495
3.126000	1.574885
3.127000	1.597109
3.128000	1.608383
3.129000	1.611926
3.130000	1.623843
3.131000	1.632862
3.132000	1.612892
3.133000	1.567799
3.134000	1.544608
3.135000	1.526893
3.136000	1.513687
3.137000	1.522383
3.138000	1.547829
3.139000	1.571020
3.140000	1.540743
3.141000	1.543319
3.142000	1.567799
3.143000	1.593244
3.144000	1.567799
3.145000	1.552982
3.146000	1.554915
3.147000	1.576495
3.148000	1.597431
3.149000	1.615469
3.150000	1.653476
3.151000	1.658951
3.152000	1.620622
3.153000	1.578428
3.154000	1.594210
3.155000	1.623521
3.156000	1.657985
3.157000	1.643491
3.158000	1.565222
3.159000	1.495649
3.160000	1.488241
3.161000	1.533979
3.162000	1.571020
3.163000	1.586802
3.164000	1.633828
3.165000	1.720471
3.166000	1.688584
3.167000	1.591956
3.168000	1.504346
3.169000	1.475035
3.170000	1.464406
3.171000	1.475680
3.172000	1.496294
3.173000	1.563289
3.174000	1.614180
3.175000	1.629641
3.176000	1.597431
3.177000	1.570053
3.178000	1.552338
3.179000	1.573274
3.180000	1.571986
3.181000	1.563933
3.182000	1.564256
3.183000	1.604195
3.184000	1.600652
3.185000	1.555881
3.186000	1.539776
3.187000	1.562645
3.188000	1.612570
3.189000	1.635116
3.190000	1.628352
3.191000	1.619012
3.192000	1.630285
3.193000	1.613214
3.194000	1.593244
3.195000	1.594855
3.196000	1.566510
3.197000	1.511110
3.198000	1.472137
3.199000	1.433163
3.200000	1.436706
3.201000	1.440893
3.202000	1.472137
3.203000	1.520129
3.204000	1.567799
3.205000	1.616113
3.206000	1.641558
3.207000	1.624809
3.208000	1.600330
3.209000	1.575529
3.210000	1.542353
3.211000	1.562967
3.212000	1.617723
3.213000	1.656375
3.214000	1.699535
3.215000	1.728524
3.216000	1.695992
3.217000	1.656697
3.218000	1.612892
3.219000	1.526893
3.220000	1.441538
3.221000	1.385493
3.222000	1.413515
3.223000	1.497904
3.224000	1.555237
3.225000	1.577461
3.226000	1.557492
3.227000	1.561357
3.228000	1.585192
3.229000	1.616435
3.230000	1.608705
3.231000	1.632540
3.232000	1.679243
3.233000	1.703723
3.234000	1.668614
3.235000	1.592278
3.236000	1.536233
3.237000	1.522383
3.238000	1.536878
3.239000	1.568765
3.240000	1.569409
3.241000	1.566510
3.242000	1.562001
3.243000	1.559102
3.244000	1.559746
3.245000	1.527537
3.246000	1.491462
3.247000	1.476968
3.248000	1.500481
3.249000	1.538166
3.250000	1.579394
3.251000	1.544286
3.252000	1.544286
3.253000	1.594855
3.254000	1.619012
3.255000	1.643813
3.256000	1.607738
3.257000	1.585514
3.258000	1.578106
3.259000	1.570053
3.260000	1.525282
3.261000	1.500481
3.262000	1.500803
3.263000	1.507245
3.264000	1.519162
3.265000	1.514975
3.266000	1.536878
3.267000	1.589379
3.268000	1.625131
3.269000	1.653154
3.270000	1.655730
3.271000	1.612570
3.272000	1.571664
3.273000	1.554271
3.274000	1.535589
3.275000	1.550083
3.276000	1.576495
3.277000	1.596143
3.278000	1.627708
3.279000	1.630285
3.280000	1.610959
3.281000	1.575529
3.282000	1.552660
3.283000	1.527215
3.284000	1.524638
3.285000	1.543319
3.286000	1.568765
3.287000	1.605484
3.288000	1.635761
3.289000	1.638981
3.290000	1.625776
3.291000	1.637049
3.292000	1.614502
3.293000	1.590345
3.294000	1.571664
3.295000	1.577461
3.296000	1.581327
3.297000	1.548795
3.298000	1.508211
3.299000	1.443148
3.300000	1.392579
3.301000	1.391291
3.302000	1.460863
3.303000	1.525604
3.304000	1.545574
3.305000	1.536233
3.306000	1.542997
3.307000	1.562967
3.308000	1.542997
3.309000	1.565222
3.310000	1.571020
3.311000	1.590989
3.312000	1.618045
3.313000	1.608383
3.314000	1.594532
3.315000	1.582293
3.316000	1.596787
3.317000	1.640592
3.318000	1.670869
3.319000	1.657019
3.320000	1.612570
3.321000	1.588413
3.322000	1.647678
3.323000	1.709520
3.324000	1.705655
3.325000	1.667004
3.326000	1.606772
3.327000	1.566188
3.328000	1.550728
3.329000	1.588413
3.330000	1.627708
3.331000	1.652832
3.332000	1.636083
3.333000	1.591634
3.334000	1.514653
3.335000	1.468916
3.336000	1.418347
3.337000	1.377763
3.338000	1.406751
3.339000	1.494683
3.340000	1.581649
3.341000	1.613214
3.342000	1.625131
3.343000	1.641236
3.344000	1.623199
3.345000	1.614824
3.346000	1.588735
3.347000	1.533334
3.348000	1.538488
3.349000	1.606772
3.350000	1.689550
3.351000	1.720794
3.352000	1.715318
3.353000	1.681176
3.354000	1.655086
3.355000	1.632862
3.356000	1.573918
3.357000	1.455388
3.358000	1.408040
3.359000	1.447013
3.360000	1.463440
3.361000	1.450234
3.362000	1.423822
3.363000	1.407718
3.364000	1.410616
3.365000	1.415448
3.366000	1.433485
3.367000	1.470526
3.368000	1.504346
3.369000	1.507567
3.370000	1.508533
3.371000	1.511110
3.372000	1.513043
3.373000	1.542997
3.374000	1.554593
3.375000	1.571020
3.376000	1.621588
3.377000	1.656697
3.378000	1.683108
3.379000	1.678277
3.380000	1.649933
3.381000	1.635761
3.382000	1.645101
3.383000	1.662816
3.384000	1.649933
3.385000	1.635761
3.386000	1.656697
3.387000	1.684719
3.388000	1.704367
3.389000	1.711453
3.390000	1.732711
3.391000	1.747205
3.392000	1.742696
3.393000	1.698247
3.394000	1.628997
3.395000	1.566188
3.396000	1.513043
3.397000	1.464084
3.398000	1.452167
3.399000	1.439605
3.400000	1.433163
3.401000	1.431875
3.402000	1.424789
3.403000	1.453777
3.404000	1.506601
3.405000	1.525604
3.406000	1.516263
3.407000	1.503702
3.408000	1.468593
3.409000	1.479223
3.410000	1.524316
3.411000	1.565866
3.412000	1.619978
3.413000	1.674734
3.414000	1.672157
3.415000	1.674090
3.416000	1.724659
3.417000	1.756868
3.418000	1.782314
3.419000	1.801639
3.420000	1.818710
3.421000	1.759767
3.422000	1.688906
3.423000	1.558136
3.424000	1.443792
3.425000	1.385815
3.426000	1.345876
3.427000	1.369388
3.428000	1.382272
3.429000	1.402564
3.430000	1.438639
3.431000	1.458931
3.432000	1.492751
3.433000	1.518196
3.434000	1.561679
3.435000	1.600008
3.436000	1.612248
3.437000	1.605484
3.438000	1.580360
3.439000	1.580038
3.440000	1.591634
3.441000	1.580360
3.442000	1.574240
3.443000	1.568121
3.444000	1.552016
3.445000	1.537522
3.446000	1.535267
3.447000	1.534301
3.448000	1.538488
3.449000	1.555881
3.450000	1.600974
3.451000	1.615469
3.452000	1.632540
3.453000	1.649933
3.454000	1.677311
3.455000	1.700824
3.456000	1.686329
3.457000	1.641880
3.458000	1.585192
3.459000	1.519484
3.460000	1.469882
3.461000	1.448302
3.462000	1.449590
3.463000	1.482766
3.464000	1.528503
3.465000	1.543642
3.466000	1.540743
3.467000	1.535589
3.468000	1.578750
3.469000	1.629963
3.470000	1.650577
3.471000	1.660562
3.472000	1.649289
3.473000	1.627064
3.474000	1.624165
3.475000	1.625131
3.476000	1.596143
3.477000	1.547507
3.478000	1.549439
3.479000	1.552338
3.480000	1.582615
3.481000	1.581004
3.482000	1.579716
3.483000	1.570697
3.484000	1.546862
3.485000	1.517552
3.486000	1.522383
3.487000	1.586480
3.488000	1.648322
3.489000	1.663139
3.490000	1.628352
3.491000	1.551050
3.492000	1.464084
3.493000	1.402242
3.494000	1.390969
3.495000	1.455710
3.496000	1.537844
3.497000	1.573918
3.498000	1.600974
3.499000	1.638015
3.500000	1.653798
3.501000	1.646390
3.502000	1.634472
3.503000	1.646712
3.504000	1.646068
3.505000	1.634150
3.506000	1.589379
3.507000	1.566510
3.508000	1.595499
3.509000	1.610959
3.510000	1.582615
3.511000	1.577461
3.512000	1.580682
3.513000	1.589057
3.514000	1.559102
3.515000	1.494039
3.516000	1.431553
3.517000	1.399021
3.518000	1.411583
3.519000	1.459575
3.520000	1.545252
3.521000	1.624165
3.522000	1.652509
3.523000	1.593566
3.524000	1.542675
3.525000	1.525282
3.526000	1.527215
3.527000	1.585836
3.528000	1.642202
3.529000	1.672157
3.530000	1.679243
3.531000	1.666360
3.532000	1.649933
3.533000	1.639304
3.534000	1.607738
3.535000	1.595177
3.536000	1.608383
3.537000	1.630607
3.538000	1.598720
3.539000	1.595499
3.540000	1.582615
3.541000	1.552660
3.542000	1.496616
3.543000	1.471814
3.544000	1.467305
3.545000	1.498548
3.546000	1.532368
3.547000	1.561679
3.548000	1.583903
3.549000	1.577139
3.550000	1.585514
3.551000	1.600652
3.552000	1.606450
3.553000	1.572952
3.554000	1.555237
3.555000	1.599364
3.556000	1.619978
3.557000	1.590989
3.558000	1.534623
3.559000	1.471492
3.560000	1.443148
3.561000	1.450556
3.562000	1.532690
3.563000	1.680854
3.564000	1.791332
3.565000	1.829984
3.566000	1.797452
3.567000	1.678277
3.568000	1.577139
3.569000	1.527537
3.570000	1.499837
3.571000	1.514653
3.572000	1.517874
3.573000	1.541065
3.574000	1.563611
3.575000	1.568121
3.576000	1.580682
3.577000	1.572952
3.578000	1.543642
3.579000	1.470204
3.580000	1.444759
3.581000	1.468271
3.582000	1.477290
3.583000	1.492106
3.584000	1.512076
3.585000	1.536878
3.586000	1.556203
3.587000	1.591956
3.588000	1.629319
3.589000	1.631573
3.590000	1.558136
3.591000	1.504668
3.592000	1.495005
3.593000	1.483410
3.594000	1.517874
3.595000	1.538166
3.596000	1.536878
3.597000	1.558458
3.598000	1.591634
3.599000	1.612248
3.600000	1.631573
3.601000	1.633506
3.602000	1.601296
3.603000	1.556847
3.604000	1.492106
3.605000	1.470526
3.606000	1.460541
3.607000	1.514653
3.608000	1.611603
3.609000	1.684075
3.610000	1.732067
3.611000	1.772007
3.612000	1.792621
3.613000	1.808725
3.614000	1.767497
3.615000	1.691161
3.616000	1.595821
3.617000	1.490174
3.618000	1.478901
3.619000	1.533334
3.620000	1.572952
3.621000	1.592600
3.622000	1.610959
3.623000	1.601941
3.624000	1.525926
3.625000	1.481155
3.626000	1.436062
3.627000	1.411583
3.628000	1.377441
3.629000	1.387104
3.630000	1.464728
3.631000	1.551372
3.632000	1.639948
3.633000	1.703723
3.634000	1.708876
3.635000	1.690839
3.636000	1.648644
3.637000	1.590989
3.638000	1.531402
3.639000	1.524960
3.640000	1.524638
3.641000	1.504346
3.642000	1.507889
3.643000	1.502091
3.644000	1.487275
3.645000	1.508533
3.646000	1.550728
3.647000	1.591634
3.648000	1.590023
3.649000	1.605806
3.650000	1.588735
3.651000	1.552982
3.652000	1.506923
3.653000	1.524960
3.654000	1.570375
3.655000	1.589379
3.656000	1.576817
3.657000	1.567154
3.658000	1.579072
3.659000	1.569087
3.660000	1.528503
3.661000	1.491784
3.662000	1.523672
3.663000	1.511432
3.664000	1.495649
3.665000	1.533334
3.666000	1.576173
3.667000	1.632540
3.668000	1.659273
3.669000	1.637049
3.670000	1.612892
3.671000	1.611926
3.672000	1.625454
3.673000	1.644779
3.674000	1.660240
3.675000	1.671191
3.676000	1.651221
3.677000	1.600008
3.678000	1.578428
3.679000	1.581971
3.680000	1.549761
3.681000	1.539454
3.682000	1.558458
3.683000	1.592278
3.684000	1.574240
3.685000	1.524316
3.686000	1.519484
3.687000	1.554593
3.688000	1.619978
3.689000	1.664427
3.690000	1.656375
3.691000	1.585836
3.692000	1.516586
3.693000	1.484054
3.694000	1.466661
3.695000	1.481477
3.696000	1.531402
3.697000	1.561679
3.698000	1.587446
3.699000	1.614824
3.700000	1.616757
3.701000	1.601619
3.702000	1.583581
3.703000	1.540098
3.704000	1.558780
3.705000	1.610315
3.706000	1.669580
3.707000	1.706299
3.708000	1.725303
3.709000	1.705011
3.710000	1.655730
3.711000	1.547185
3.712000	1.423178
3.713000	1.336213
3.714000	1.338145
3.715000	1.390002
3.716000	1.424144
3.717000	1.467627
3.718000	1.514009
3.719000	1.581971
3.720000	1.611281
3.721000	1.620622
3.722000	1.608705
3.723000	1.568443
3.724000	1.531724
3.725000	1.522705
3.726000	1.529791
3.727000	1.549117
3.728000	1.599042
3.729000	1.638015
3.730000	1.678599
3.731000	1.689550
3.732000	1.685041
3.733000	1.635438
3.734000	1.562001
3.735000	1.501447
3.736000	1.443792
3.737000	1.405785
3.738000	1.395156
3.739000	1.418025
3.740000	1.517230
3.741000	1.604195
3.742000	1.625131
3.743000	1.690517
3.744000	1.736898
3.745000	1.736576
3.746000	1.740119
3.747000	1.732389
3.748000	1.667326
3.749000	1.585836
3.750000	1.546218
3.751000	1.514653
3.752000	1.491784
3.753000	1.464084
3.754000	1.450556
3.755000	1.446691
3.756000	1.450878
3.757000	1.522705
3.758000	1.632862
3.759000	1.724014
3.760000	1.727880
3.761000	1.677633
3.762000	1.596787
3.763000	1.534945
3.764000	1.483088
3.765000	1.466983
3.766000	1.493717
3.767000	1.561035
3.768000	1.620944
3.769000	1.671835
3.770000	1.687940
3.771000	1.656053
3.772000	1.591312
3.773000	1.548473
3.774000	1.549761
3.775000	1.599686
3.776000	1.628674
3.777000	1.656375
3.778000	1.657663
3.779000	1.622233
3.780000	1.579394
3.781000	1.535911
3.782000	1.490496
3.783000	1.449590
3.784000	1.406107
3.785000	1.390969
3.786000	1.406107
3.787000	1.414482
3.788000	1.419313
3.789000	1.483732
3.790000	1.575851
3.791000	1.602263
3.792000	1.627064
3.793000	1.650577
3.794000	1.661850
3.795000	1.655408
3.796000	1.650255
3.797000	1.641236
3.798000	1.616113
3.799000	1.580360
3.800000	1.574240
3.801000	1.538166
3.802000	1.530758
3.803000	1.510144
3.804000	1.524638
3.805000	1.562323
3.806000	1.603229
3.807000	1.652832
3.808000	1.705333
3.809000	1.721760
3.810000	1.649933
3.811000	1.604517
3.812000	1.557492
3.813000	1.515619
3.814000	1.496294
3.815000	1.513687
3.816000	1.561679
3.817000	1.627386
3.818000	1.699213
3.819000	1.753325
3.820000	1.749138
3.821000	1.644457
3.822000	1.563933
3.823000	1.478578
3.824000	1.367456
3.825000	1.289187
3.826000	1.280812
3.827000	1.312378
3.828000	1.380984
3.829000	1.449912
3.830000	1.530758
3.831000	1.571342
3.832000	1.589379
3.833000	1.592922
3.834000	1.619656
3.835000	1.679243
3.836000	1.758156
3.837000	1.799385
3.838000	1.775550
3.839000	1.745273
3.840000	1.712741
3.841000	1.644457
3.842000	1.565544
3.843000	1.532368
3.844000	1.484698
3.845000	1.428332
3.846000	1.393868
3.847000	1.407718
3.848000	1.456998
3.849000	1.533657
3.850000	1.587124
3.851000	1.603551
3.852000	1.611281
3.853000	1.625776
3.854000	1.636405
3.855000	1.625454
3.856000	1.640914
3.857000	1.648000
3.858000	1.646390
3.859000	1.606128
3.860000	1.568443
3.861000	1.533979
3.862000	1.562645
3.863000	1.623843
3.864000	1.667004
3.865000	1.666682
3.866000	1.653798
3.867000	1.617401
3.868000	1.566188
3.869000	1.524960
3.870000	1.484054
3.871000	1.472137
3.872000	1.539776
3.873000	1.612248
3.874000	1.668936
3.875000	1.701146
3.876000	1.679243
3.877000	1.629319
3.878000	1.574885
3.879000	1.488885
3.880000	1.448302
3.881000	1.409006
3.882000	1.362302
3.883000	1.378407
3.884000	1.412871
3.885000	1.449912
3.886000	1.510466
3.887000	1.528503
3.888000	1.519807
3.889000	1.503058
3.890000	1.489208
3.891000	1.505956
3.892000	1.533012
3.893000	1.559424
3.894000	1.590989
3.895000	1.600008
3.896000	1.586802
3.897000	1.553949
3.898000	1.544930
3.899000	1.572952
3.900000	1.598075
3.901000	1.627064
3.902000	1.657985
3.903000	1.657663
3.904000	1.637049
3.905000	1.638981
3.906000	1.638337
3.907000	1.654764
3.908000	1.697603
3.909000	1.688262
3.910000	1.633828
3.911000	1.601619
3.912000	1.576495
3.913000	1.563611
3.914000	1.533012
3.915000	1.483732
3.916000	1.480189
3.917000	1.508533
3.918000	1.542675
3.919000	1.590667
3.920000	1.616435
3.921000	1.629641
3.922000	1.644779
3.923000	1.634150
3.924000	1.601619
3.925000	1.571342
3.926000	1.544286
3.927000	1.516586
3.928000	1.508533
3.929000	1.521739
3.930000	1.583259
3.931000	1.639626
3.932000	1.693093
3.933000	1.720149
3.934000	1.723048
3.935000	1.644779
3.936000	1.527215
3.937000	1.448946
3.938000	1.440249
3.939000	1.489208
3.940000	1.533334
3.941000	1.533334
3.942000	1.531080
3.943000	1.513043
3.944000	1.504024
3.945000	1.521095
3.946000	1.545574
3.947000	1.552982
3.948000	1.563933
3.949000	1.541387
3.950000	1.517230
3.951000	1.493717
3.952000	1.477290
3.953000	1.506279
3.954000	1.527215
3.955000	1.536233
3.956000	1.545896
3.957000	1.570053
3.958000	1.597109
3.959000	1.645745
3.960000	1.639626
3.961000	1.614824
3.962000	1.586480
3.963000	1.542675
3.964000	1.504668
3.965000	1.524638
3.966000	1.552982
3.967000	1.582293
3.968000	1.596143
3.969000	1.614502
3.970000	1.649933
3.971000	1.643169
3.972000	1.661850
3.973000	1.700502
3.974000	1.676989
3.975000	1.609671
3.976000	1.560713
3.977000	1.535911
3.978000	1.475357
3.979000	1.443148
3.980000	1.441538
3.981000	1.496938
3.982000	1.601941
3.983000	1.661850
3.984000	1.714352
3.985000	1.756224
3.986000	1.743018
3.987000	1.686974
3.988000	1.638015
3.989000	1.600008
3.990000	1.518196
3.991000	1.431553
3.992000	1.443470
3.993000	1.503058
3.994000	1.539454
3.995000	1.540421
3.996000	1.521095
3.997000	1.569087
3.998000	1.580360
3.999000	1.563611
4.000000	1.524316
4.001000	1.487275
4.002000	1.451522
4.003000	1.462474
4.004000	1.525282
4.005000	1.578750
4.006000	1.605162
4.007000	1.601941
4.008000	1.584548
4.009000	1.576173
4.010000	1.572308
4.011000	1.573596
4.012000	1.599686
4.013000	1.578750
4.014000	1.562645
4.015000	1.576173
4.016000	1.582937
4.017000	1.584225
4.018000	1.612570
4.019000	1.648322
4.020000	1.659918
4.021000	1.668292
4.022000	1.653154
4.023000	1.578428
4.024000	1.524638
4.025000	1.459575
4.026000	1.434774
4.027000	1.475680
4.028000	1.516586
4.029000	1.541065
4.030000	1.543964
4.031000	1.542031
4.032000	1.498870
4.033000	1.454099
4.034000	1.448302
4.035000	1.485342
4.036000	1.568765
4.037000	1.670869
4.038000	1.714352
4.039000	1.722726
4.040000	1.700179
4.041000	1.646390
4.042000	1.574885
4.043000	1.533979
4.044000	1.503380
4.045000	1.492751
4.046000	1.475680
4.047000	1.492428
4.048000	1.546862
4.049000	1.599042
4.050000	1.669258
4.051000	1.697281
4.052000	1.696636
4.053000	1.630929
4.054000	1.590989
4.055000	1.575529
4.056000	1.563611
4.057000	1.556847
4.058000	1.516263
4.059000	1.492106
4.060000	1.502413
4.061000	1.509499
4.062000	1.519807
4.063000	1.511432
4.064000	1.509177
4.065000	1.536233
4.066000	1.565222
4.067000	1.562645
4.068000	1.543319
4.069000	1.518518
4.070000	1.503380
4.071000	1.534623
4.072000	1.604839
4.073000	1.668936
4.074000	1.699857
4.075000	1.721760
4.076000	1.701790
4.077000	1.677633
4.078000	1.639948
4.079000	1.571020
4.080000	1.505634
4.081000	1.453777
4.082000	1.459897
4.083000	1.474713
4.084000	1.479545
4.085000	1.500481
4.086000	1.542031
4.087000	1.591956
4.088000	1.668292
4.089000	1.708232
4.090000	1.726913
4.091000	1.710486
4.092000	1.637371
4.093000	1.591956
4.094000	1.567799
4.095000	1.554271
4.096000	1.578428
4.097000	1.598398
4.098000	1.633828
4.099000	1.640914
4.100000	1.609993
4.101000	1.546218
4.102000	1.475680
4.103000	1.438639
4.104000	1.420601
4.105000	1.436384
4.106000	1.467627
4.107000	1.474391
4.108000	1.462474
4.109000	1.476968
4.110000	1.514331
4.111000	1.496616
4.112000	1.463440
4.113000	1.455066
4.114000	1.467949
4.115000	1.524316
4.116000	1.612892
4.117000	1.667326
4.118000	1.719505
4.119000	1.759767
4.120000	1.772007
4.121000	1.767819
4.122000	1.745917
4.123000	1.707266
4.124000	1.650577
4.125000	1.589701
4.126000	1.562967
4.127000	1.514653
4.128000	1.499515
4.129000	1.500481
4.130000	1.496294
4.131000	1.472781
4.132000	1.490496
4.133000	1.550083
4.134000	1.579072
4.135000	1.572308
4.136000	1.558458
4.137000	1.548151
4.138000	1.569087
4.139000	1.598720
4.140000	1.608060
4.141000	1.581327
4.142000	1.576817
4.143000	1.600974
4.144000	1.614824
4.145000	1.625454
4.146000	1.610315
4.147000	1.583259
4.148000	1.556525
4.149000	1.547507
4.150000	1.558458
4.151000	1.598075
4.152000	1.614824
4.153000	1.653476
4.154000	1.686974
4.155000	1.691161
4.156000	1.641558
4.157000	1.554915
4.158000	1.510466
4.159000	1.481477
4.160000	1.452167
4.161000	1.513687
4.162000	1.595177
4.163000	1.645423
4.164000	1.687618
4.165000	1.694060
4.166000	1.670869
4.167000	1.662172
4.168000	1.582293
4.169000	1.486631
4.170000	1.425111
4.171000	1.415448
4.172000	1.420601
4.173000	1.442182
4.174000	1.481477
4.175000	1.510788
4.176000	1.517874
4.177000	1.504990
4.178000	1.504668
4.179000	1.494361
4.180000	1.533657
4.181000	1.573274
4.182000	1.638659
4.183000	1.730134
4.184000	1.771362
4.185000	1.743984
4.186000	1.689872
4.187000	1.618367
4.188000	1.543642
4.189000	1.531402
4.190000	1.494361
4.191000	1.468271
4.192000	1.478256
4.193000	1.478901
4.194000	1.495972
4.195000	1.552982
4.196000	1.587446
4.197000	1.586158
4.198000	1.580038
4.199000	1.562001
4.200000	1.510788
4.201000	1.447657
4.202000	1.409972
4.203000	1.440893
4.204000	1.567154
4.205000	1.693093
4.206000	1.706299
4.207000	1.630285
4.208000	1.590345
4.209000	1.567799
4.210000	1.557814
4.211000	1.561035
4.212000	1.593244
4.213000	1.635761
4.214000	1.617079
4.215000	1.598720
4.216000	1.600652
4.217000	1.627064
4.218000	1.646712
4.219000	1.659273
4.220000	1.670225
4.221000	1.609349
4.222000	1.535911
4.223000	1.517230
4.224000	1.564900
4.225000	1.618045
4.226000	1.644135
4.227000	1.637371
4.228000	1.674412
4.229000	1.692127
4.230000	1.651543
4.231000	1.568121
4.232000	1.487919
4.233000	1.457642
4.234000	1.477934
4.235000	1.514331
4.236000	1.591956
4.237000	1.618690
4.238000	1.600974
4.239000	1.537522
4.240000	1.454743
4.241000	1.402564
4.242000	1.437995
4.243000	1.491784
4.244000	1.506601
4.245000	1.513043
4.246000	1.543642
4.247000	1.590667
4.248000	1.619012
4.249000	1.605162
4.250000	1.599042
4.251000	1.596465
4.252000	1.535911
4.253000	1.455710
4.254000	1.422212
4.255000	1.420601
4.256000	1.447657
4.257000	1.504024
4.258000	1.596143
4.259000	1.665715
4.260000	1.681820
4.261000	1.661850
4.262000	1.610315
4.263000	1.574885
4.264000	1.555881
4.265000	1.547185
4.266000	1.559424
4.267000	1.633506
4.268000	1.685363
4.269000	1.714674
4.270000	1.737220
4.271000	1.711775
4.272000	1.683431
4.273000	1.679243
4.274000	1.677311
4.275000	1.621588
4.276000	1.538166
4.277000	1.480833
4.278000	1.405463
4.279000	1.418347
4.280000	1.516263
4.281000	1.562001
4.282000	1.577139
4.283000	1.593244
4.284000	1.564578
4.285000	1.530758
4.286000	1.507889
4.287000	1.462796
4.288000	1.450556
4.289000	1.479545
4.290000	1.494039
4.291000	1.508855
4.292000	1.541065
4.293000	1.591956
4.294000	1.641558
4.295000	1.724337
4.296000	1.760733
4.297000	1.738831
4.298000	1.718217
4.299000	1.689550
4.300000	1.623521
4.301000	1.560390
4.302000	1.521739
4.303000	1.512720
4.304000	1.510788
4.305000	1.519807
4.306000	1.524316
4.307000	1.541065
4.308000	1.582937
4.309000	1.620622
4.310000	1.643491
4.311000	1.652832
4.312000	1.621910
4.313000	1.555237
4.314000	1.504346
4.315000	1.457642
4.316000	1.439927
4.317000	1.452811
4.318000	1.504024
4.319000	1.500159
4.320000	1.465050
4.321000	1.440571
4.322000	1.445403
4.323000	1.467627
4.324000	1.483410
4.325000	1.511754
4.326000	1.579072
4.327000	1.638981
4.328000	1.644779
4.329000	1.649933
4.330000	1.662494
4.331000	1.666037
4.332000	1.674734
4.333000	1.671835
4.334000	1.633828
4.335000	1.613214
4.336000	1.572952
4.337000	1.568765
4.338000	1.525604
4.339000	1.471492
4.340000	1.485665
4.341000	1.554915
4.342000	1.629963
4.343000	1.692127
4.344000	1.731101
4.345000	1.747205
4.346000	1.714352
4.347000	1.651543
4.348000	1.565222
4.349000	1.470848
4.350000	1.433485
4.351000	1.447013
4.352000	1.495327
4.353000	1.548473
4.354000	1.572952
4.355000	1.571664
4.356000	1.589701
4.357000	1.593566
4.358000	1.576173
4.359000	1.541709
4.360000	1.510466
4.361000	1.544286
4.362000	1.580682
4.363000	1.569731
4.364000	1.535267
4.365000	1.552016
4.366000	1.570697
4.367000	1.595177
4.368000	1.653798
4.369000	1.690517
4.370000	1.705333
4.371000	1.711775
4.372000	1.717895
4.373000	1.683431
4.374000	1.610315
4.375000	1.537844
4.376000	1.482444
4.377000	1.437350
4.378000	1.419313
4.379000	1.408362
4.380000	1.400954
4.381000	1.377763
4.382000	1.386137
4.383000	1.388392
4.384000	1.428976
4.385000	1.539132
4.386000	1.631251
4.387000	1.657341
4.388000	1.597431
4.389000	1.536878
4.390000	1.482444
4.391000	1.510788
4.392000	1.614502
4.393000	1.682142
4.394000	1.705655
4.395000	1.748816
4.396000	1.779415
4.397000	1.748816
4.398000	1.689550
4.399000	1.674734
4.400000	1.650255
4.401000	1.628997
4.402000	1.600330
4.403000	1.594855
4.404000	1.610959
4.405000	1.606128
4.406000	1.573918
4.407000	1.520773
4.408000	1.485020
4.409000	1.471814
4.410000	1.470204
4.411000	1.475035
4.412000	1.486953
4.413000	1.488563
4.414000	1.504668
4.415000	1.509822
4.416000	1.493395
4.417000	1.542675
4.418000	1.602585
4.419000	1.621910
4.420000	1.609349
4.421000	1.591312
4.422000	1.555237
4.423000	1.538166
4.424000	1.513043
4.425000	1.501769
4.426000	1.502736
4.427000	1.505634
4.428000	1.528825
4.429000	1.553304
4.430000	1.592600
4.431000	1.651221
4.432000	1.708232
4.433000	1.740119
4.434000	1.772329
4.435000	1.756868
4.436000	1.691805
4.437000	1.613214
4.438000	1.542031
4.439000	1.516908
4.440000	1.520451
4.441000	1.535267
4.442000	1.562323
4.443000	1.565866
4.444000	1.528181
4.445000	1.490174
4.446000	1.473103
4.447000	1.476002
4.448000	1.502091
4.449000	1.527859
4.450000	1.553949
4.451000	1.573596
4.452000	1.582615
4.453000	1.563933
4.454000	1.539454
4.455000	1.542353
4.456000	1.548795
4.457000	1.553304
4.458000	1.547507
4.459000	1.528503
4.460000	1.488563
4.461000	1.423822
4.462000	1.395800
4.463000	1.445403
4.464000	1.485020
4.465000	1.552982
4.466000	1.626420
4.467000	1.679565
4.468000	1.730778
4.469000	1.785535
4.470000	1.832882
4.471000	1.843834
4.472000	1.774905
4.473000	1.643169
4.474000	1.537522
4.475000	1.473103
4.476000	1.451845
4.477000	1.457964
4.478000	1.513687
4.479000	1.559424
4.480000	1.555237
4.481000	1.542031
4.482000	1.519807
4.483000	1.506279
4.484000	1.553626
4.485000	1.628997
4.486000	1.679888
4.487000	1.676022
4.488000	1.648966
4.489000	1.597753
4.490000	1.542997
4.491000	1.493717
4.492000	1.439605
4.493000	1.416092
4.494000	1.440893
4.495000	1.450234
4.496000	1.480833
4.497000	1.556203
4.498000	1.618367
4.499000	1.661206
4.500000	1.654442
4.501000	1.642202
4.502000	1.621588
4.503000	1.600652
4.504000	1.553626
4.505000	1.535911
4.506000	1.520451
4.507000	1.476646
4.508000	1.434774
4.509000	1.461507
4.510000	1.508211
4.511000	1.562001
4.512000	1.618367
4.513000	1.662494
4.514000	1.706943
4.515000	1.716284
4.516000	1.678599
4.517000	1.638015
4.518000	1.611281
4.519000	1.564578
4.520000	1.521095
4.521000	1.504024
4.522000	1.493395
4.523000	1.471814
4.524000	1.471814
4.525000	1.489530
4.526000	1.542675
4.527000	1.594855
4.528000	1.662816
4.529000	1.698247
4.530000	1.677311
4.531000	1.698569
4.532000	1.745273
4.533000	1.740441
4.534000	1.698891
4.535000	1.615469
4.536000	1.556525
4.537000	1.539132
4.538000	1.478256
4.539000	1.421246
4.540000	1.392257
4.541000	1.387748
4.542000	1.417380
4.543000	1.458609
4.544000	1.478578
4.545000	1.501769
4.546000	1.536233
4.547000	1.560068
4.548000	1.570375
4.549000	1.578428
4.550000	1.596143
4.551000	1.613536
4.552000	1.587124
4.553000	1.575207
4.554000	1.581327
4.555000	1.619012
4.556000	1.658951
4.557000	1.693738
4.558000	1.683753
4.559000	1.664105
4.560000	1.642202
4.561000	1.636405
4.562000	1.668292
4.563000	1.692771
4.564000	1.676022
4.565000	1.642202
4.566000	1.585192
4.567000	1.522061
4.568000	1.446369
4.569000	1.434774
4.570000	1.433163
4.571000	1.422534
4.572000	1.451200
4.573000	1.465695
4.574000	1.445081
4.575000	1.446047
4.576000	1.457320
4.577000	1.482121
4.578000	1.519162
4.579000	1.577461
4.580000	1.637049
4.581000	1.658951
4.582000	1.679565
4.583000	1.686007
4.584000	1.657663
4.585000	1.654120
4.586000	1.627064
4.587000	1.639626
4.588000	1.643491
4.589000	1.615791
4.590000	1.564900
4.591000	1.485665
4.592000	1.468916
4.593000	1.486631
4.594000	1.552338
4.595000	1.583581
4.596000	1.569409
4.597000	1.567154
4.598000	1.582615
4.599000	1.586158
4.600000	1.556847
4.601000	1.498870
4.602000	1.501125
4.603000	1.520451
4.604000	1.556525
4.605000	1.534301
4.606000	1.509499
4.607000	1.512398
4.608000	1.559424
4.609000	1.565222
4.610000	1.575851
4.611000	1.589057
4.612000	1.591956
4.613000	1.597753
4.614000	1.612892
4.615000	1.621266
4.616000	1.649933
4.617000	1.659273
4.618000	1.655730
4.619000	1.664427
4.620000	1.621588
4.621000	1.577461
4.622000	1.556847
4.623000	1.500481
4.624000	1.430264
4.625000	1.411261
4.626000	1.439283
4.627000	1.502091
4.628000	1.529791
4.629000	1.556203
4.630000	1.587768
4.631000	1.607738
4.632000	1.598075
4.633000	1.599686
4.634000	1.623199
4.635000	1.694060
4.636000	1.761700
4.637000	1.758479
4.638000	1.725303
4.639000	1.676989
4.640000	1.615469
4.641000	1.531724
4.642000	1.495649
4.643000	1.484698
4.644000	1.476968
4.645000	1.477934
4.646000	1.518196
4.647000	1.525926
4.648000	1.526893
4.649000	1.542675
4.650000	1.543964
4.651000	1.531402
4.652000	1.533334
4.653000	1.501769
4.654000	1.459253
4.655000	1.416092
4.656000	1.451845
4.657000	1.518840
4.658000	1.559424
4.659000	1.567799
4.660000	1.584548
4.661000	1.591956
4.662000	1.586802
4.663000	1.606450
4.664000	1.618367
4.665000	1.663783
4.666000	1.685363
4.667000	1.677311
4.668000	1.646712
4.669000	1.643491
4.670000	1.649289
4.671000	1.643169
4.672000	1.601296
4.673000	1.572630
4.674000	1.541065
4.675000	1.484054
4.676000	1.428654
4.677000	1.413193
4.678000	1.443792
4.679000	1.463762
4.680000	1.525282
4.681000	1.567799
4.682000	1.562967
4.683000	1.565866
4.684000	1.557169
4.685000	1.579394
4.686000	1.602263
4.687000	1.612248
4.688000	1.614824
4.689000	1.634794
4.690000	1.666682
4.691000	1.705333
4.692000	1.703078
4.693000	1.652832
4.694000	1.640592
4.695000	1.715318
4.696000	1.796808
4.697000	1.781347
4.698000	1.701468
4.699000	1.588735
4.700000	1.510144
4.701000	1.466017
4.702000	1.410616
4.703000	1.400632
4.704000	1.426721
4.705000	1.493395
4.706000	1.525282
4.707000	1.532368
4.708000	1.524638
4.709000	1.503058
4.710000	1.494683
4.711000	1.456998
4.712000	1.435418
4.713000	1.439927
4.714000	1.449912
4.715000	1.446691
4.716000	1.440249
4.717000	1.419957
4.718000	1.432197
4.719000	1.486309
4.720000	1.578106
4.721000	1.656375
4.722000	1.713707
4.723000	1.734966
4.724000	1.754291
4.725000	1.713063
4.726000	1.639304
4.727000	1.602907
4.728000	1.564256
4.729000	1.518196
4.730000	1.485987
4.731000	1.504668
4.732000	1.538488
4.733000	1.557492
4.734000	1.572630
4.735000	1.584548
4.736000	1.580360
4.737000	1.568765
4.738000	1.573274
4.739000	1.608705
4.740000	1.637049
4.741000	1.613536
4.742000	1.594532
4.743000	1.590023
4.744000	1.583581
4.745000	1.598075
4.746000	1.571986
4.747000	1.550083
4.748000	1.604517
4.749000	1.645101
4.750000	1.645101
4.751000	1.644779
4.752000	1.629319
4.753000	1.629641
4.754000	1.617723
4.755000	1.631251
4.756000	1.668936
4.757000	1.693738
4.758000	1.689872
4.759000	1.628997
4.760000	1.575207
4.761000	1.568443
4.762000	1.561357
4.763000	1.513687
4.764000	1.484698
4.765000	1.477290
4.766000	1.490496
4.767000	1.492751
4.768000	1.487919
4.769000	1.480833
4.770000	1.450878
4.771000	1.401276
4.772000	1.356505
4.773000	1.370355
4.774000	1.464406
4.775000	1.583903
4.776000	1.660884
4.777000	1.734321
4.778000	1.741085
4.779000	1.689228
4.780000	1.667004
4.781000	1.637371
4.782000	1.621588
4.783000	1.627708
4.784000	1.582293
4.785000	1.530436
4.786000	1.515619
4.787000	1.517552
4.788000	1.476002
4.789000	1.512398
4.790000	1.622555
4.791000	1.722726
4.792000	1.815167
4.793000	1.874433
4.794000	1.893758
4.795000	1.846410
4.796000	1.708232
4.797000	1.537200
4.798000	1.418025
4.799000	1.368744
4.800000	1.331703
4.801000	1.310767
4.802000	1.347486
4.803000	1.448302
4.804000	1.586158
4.805000	1.645101
4.806000	1.617079
4.807000	1.549117
4.808000	1.460541
4.809000	1.385171
4.810000	1.381306
4.811000	1.426399
4.812000	1.517230
4.813000	1.596465
4.814000	1.662816
4.815000	1.675700
4.816000	1.612892
4.817000	1.576173
4.818000	1.551372
4.819000	1.523350
4.820000	1.493717
4.821000	1.497582
4.822000	1.504024
4.823000	1.514331
4.824000	1.541709
4.825000	1.582615
4.826000	1.622233
4.827000	1.627708
4.828000	1.642525
4.829000	1.678921
4.830000	1.722082
4.831000	1.733033
4.832000	1.669258
4.833000	1.576495
4.834000	1.504024
4.835000	1.485665
4.836000	1.484698
4.837000	1.502413
4.838000	1.537844
4.839000	1.628674
4.840000	1.726269
4.841000	1.787467
4.842000	1.817422
4.843000	1.796486
4.844000	1.717573
4.845000	1.629319
4.846000	1.542031
4.847000	1.448302
4.848000	1.394512
4.849000	1.353284
4.850000	1.322685
4.851000	1.326228
4.852000	1.350707
4.853000	1.412227
4.854000	1.534623
4.855000	1.653476
4.856000	1.737542
4.857000	1.731423
4.858000	1.680532
4.859000	1.648000
4.860000	1.611926
4.861000	1.544286
4.862000	1.460219
4.863000	1.383238
4.864000	1.366812
4.865000	1.433163
4.866000	1.513043
4.867000	1.546540
4.868000	1.560068
4.869000	1.558136
4.870000	1.542675
4.871000	1.513043
4.872000	1.495649
4.873000	1.473747
4.874000	1.473103
4.875000	1.546540
4.876000	1.586480
4.877000	1.631251
4.878000	1.659918
4.879000	1.638015
4.880000	1.611281
4.881000	1.590345
4.882000	1.590023
4.883000	1.616757
4.884000	1.645101
4.885000	1.677633
4.886000	1.710809
4.887000	1.736576
4.888000	1.734321
4.889000	1.710164
4.890000	1.667970
4.891000	1.599042
4.892000	1.567154
4.893000	1.542353
4.894000	1.523027
4.895000	1.584225
4.896000	1.671835
4.897000	1.686974
4.898000	1.640592
4.899000	1.600974
4.900000	1.550406
4.901000	1.515297
4.902000	1.480833
4.903000	1.440893
4.904000	1.412227
4.905000	1.430586
4.906000	1.439927
4.907000	1.442504
4.908000	1.504990
4.909000	1.566832
4.910000	1.594210
4.911000	1.577461
4.912000	1.586158
4.913000	1.619334
4.914000	1.651543
4.915000	1.648644
4.916000	1.594532
4.917000	1.490174
4.918000	1.404497
4.919000	1.376797
4.920000	1.414804
4.921000	1.459575
4.922000	1.531402
4.923000	1.596787
4.924000	1.588413
4.925000	1.573918
4.926000	1.534945
4.927000	1.491784
4.928000	1.469882
4.929000	1.468271
4.930000	1.490818
4.931000	1.537522
4.932000	1.622877
4.933000	1.683753
4.934000	1.670869
4.935000	1.665071
4.936000	1.697603
4.937000	1.733355
4.938000	1.722082
4.939000	1.718861
4.940000	1.670225
4.941000	1.609027
4.942000	1.530758
4.943000	1.490174
4.944000	1.502091
4.945000	1.486953
4.946000	1.520451
4.947000	1.528825
4.948000	1.560713
4.949000	1.591634
4.950000	1.628030
4.951000	1.678599
4.952000	1.664105
4.953000	1.609993
4.954000	1.559102
4.955000	1.557169
4.956000	1.613536
4.957000	1.708876
4.958000	1.790366
4.959000	1.803572
4.960000	1.726269
4.961000	1.606772
4.962000	1.467305
4.963000	1.390002
4.964000	1.353284
4.965000	1.330415
4.966000	1.369388
4.967000	1.446369
4.968000	1.489530
4.969000	1.562967
4.970000	1.606450
4.971000	1.657341
4.972000	1.686974
4.973000	1.677633
4.974000	1.641880
4.975000	1.578750
4.976000	1.531724
4.977000	1.494683
4.978000	1.463440
4.979000	1.455388
4.980000	1.501447
4.981000	1.534945
4.982000	1.538810
4.983000	1.514653
4.984000	1.510466
4.985000	1.501769
4.986000	1.521417
4.987000	1.530436
4.988000	1.457320
4.989000	1.415126
4.990000	1.409006
4.991000	1.456032
4.992000	1.514653
4.993000	1.602907
4.994000	1.678921
4.995000	1.723370
4.996000	1.764598
4.997000	1.764920
4.998000	1.743340
4.999000	1.700502
5.000000	1.671835
5.001000	1.634472
5.002000	1.609671
5.003000	1.583259
5.004000	1.611603
5.005000	1.644457
5.006000	1.613536
5.007000	1.606128
5.008000	1.590667
5.009000	1.586480
5.010000	1.576817
5.011000	1.542031
5.012000	1.483410
5.013000	1.465373
5.014000	1.493395
5.015000	1.539132
5.016000	1.592922
5.017000	1.671835
5.018000	1.743018
5.019000	1.771362
5.020000	1.740119
5.021000	1.644457
5.022000	1.519807
5.023000	1.428010
5.024000	1.409972
5.025000	1.447657
5.026000	1.480833
5.027000	1.499192
5.028000	1.530436
5.029000	1.532046
5.030000	1.554915
5.031000	1.571342
5.032000	1.566510
5.033000	1.590345
5.034000	1.624487
5.035000	1.659918
5.036000	1.653798
5.037000	1.610637
5.038000	1.544930
5.039000	1.496616
5.040000	1.449268
5.041000	1.383238
5.042000	1.363591
5.043000	1.356827
5.044000	1.364235
5.045000	1.379373
5.046000	1.433807
5.047000	1.503702
5.048000	1.555559
5.049000	1.610637
5.050000	1.632540
5.051000	1.648644
5.052000	1.648966
5.053000	1.631573
5.054000	1.624165
5.055000	1.633184
5.056000	1.716606
5.057000	1.803572
5.058000	1.830628
5.059000	1.810658
5.060000	1.744306
5.061000	1.670547
5.062000	1.640914
5.063000	1.603873
5.064000	1.565222
5.065000	1.542353
5.066000	1.558458
5.067000	1.644779
5.068000	1.705977
5.069000	1.668614
5.070000	1.580360
5.071000	1.518196
5.072000	1.485020
5.073000	1.459897
5.074000	1.436706
5.075000	1.419635
5.076000	1.417058
5.077000	1.432197
5.078000	1.456998
5.079000	1.473425
5.080000	1.497260
5.081000	1.497582
5.082000	1.504346
5.083000	1.524960
5.084000	1.572630
5.085000	1.638981
5.086000	1.698247
5.087000	1.744306
5.088000	1.815489
5.089000	1.816456
5.090000	1.773295
5.091000	1.710486
5.092000	1.593566
5.093000	1.436384
5.094000	1.342977
5.095000	1.321074
5.096000	1.349096
5.097000	1.404175
5.098000	1.467949
5.099000	1.560713
5.100000	1.604517
5.101000	1.590023
5.102000	1.602585
5.103000	1.596787
5.104000	1.591312
5.105000	1.574563
5.106000	1.568121
5.107000	1.562323
5.108000	1.548795
5.109000	1.545574
5.110000	1.537522
5.111000	1.510144
5.112000	1.503702
5.113000	1.535267
5.114000	1.628030
5.115000	1.666360
5.116000	1.662494
5.117000	1.668292
5.118000	1.661528
5.119000	1.658629
5.120000	1.633184
5.121000	1.611603
5.122000	1.676022
5.123000	1.741730
5.124000	1.780703
5.125000	1.783280
5.126000	1.779415
5.127000	1.750104
5.128000	1.648644
5.129000	1.496616
5.130000	1.373254
5.131000	1.288221
5.132000	1.268251
5.133000	1.270828
5.134000	1.348452
5.135000	1.428332
5.136000	1.488885
5.137000	1.544930
5.138000	1.569731
5.139000	1.579072
5.140000	1.560068
5.141000	1.549761
5.142000	1.540743
5.143000	1.540421
5.144000	1.550083
5.145000	1.547829
5.146000	1.573918
5.147000	1.608705
5.148000	1.653476
5.149000	1.681820
5.150000	1.699213
5.151000	1.702756
5.152000	1.652832
5.153000	1.532368
5.154000	1.417703
5.155000	1.346842
5.156000	1.322685
5.157000	1.361658
5.158000	1.485020
5.159000	1.617723
5.160000	1.733677
5.161000	1.716284
5.162000	1.640270
5.163000	1.590667
5.164000	1.565544
5.165000	1.556847
5.166000	1.562967
5.167000	1.592922
5.168000	1.628352
5.169000	1.673768
5.170000	1.694382
5.171000	1.695670
5.172000	1.696636
5.173000	1.668936
5.174000	1.651543
5.175000	1.673446
5.176000	1.705977
5.177000	1.710809
5.178000	1.691161
5.179000	1.700502
5.180000	1.694704
5.181000	1.643813
5.182000	1.596143
5.183000	1.560713
5.184000	1.548473
5.185000	1.571664
5.186000	1.540421
5.187000	1.468916
5.188000	1.441215
5.189000	1.460863
5.190000	1.492106
5.191000	1.548795
5.192000	1.544930
5.193000	1.543319
5.194000	1.533334
5.195000	1.521417
5.196000	1.508211
5.197000	1.481155
5.198000	1.449912
5.199000	1.442504
5.200000	1.381628
5.201000	1.351029
5.202000	1.429298
5.203000	1.488563
5.204000	1.512398
5.205000	1.513687
5.206000	1.504346
5.207000	1.514975
5.208000	1.534623
5.209000	1.546862
5.210000	1.604517
5.211000	1.694704
5.212000	1.768464
5.213000	1.768464
5.214000	1.671513
5.215000	1.516586
5.216000	1.384849
5.217000	1.363913
5.218000	1.448946
5.219000	1.574885
5.220000	1.702434
5.221000	1.758801
5.222000	1.757190
5.223000	1.710809
5.224000	1.592922
5.225000	1.523672
5.226000	1.502413
5.227000	1.535267
5.228000	1.547507
5.229000	1.572952
5.230000	1.588091
5.231000	1.590989
5.232000	1.586158
5.233000	1.588735
5.234000	1.618690
5.235000	1.625131
5.236000	1.617723
5.237000	1.618045
5.238000	1.646390
5.239000	1.708554
5.240000	1.710164
5.241000	1.660884
5.242000	1.617723
5.243000	1.647034
5.244000	1.700502
5.245000	1.680210
5.246000	1.628997
5.247000	1.587768
5.248000	1.613858
5.249000	1.647678
5.250000	1.597109
5.251000	1.546540
5.252000	1.522383
5.253000	1.532368
5.254000	1.508855
5.255000	1.477290
5.256000	1.461185
5.257000	1.465373
5.258000	1.432841
5.259000	1.399343
5.260000	1.382916
5.261000	1.381950
5.262000	1.384527
5.263000	1.392579
5.264000	1.422856
5.265000	1.525926
5.266000	1.578428
5.267000	1.588413
5.268000	1.565222
5.269000	1.560068
5.270000	1.571342
5.271000	1.577461
5.272000	1.621910
5.273000	1.689872
5.274000	1.698247
5.275000	1.705655
5.276000	1.700824
5.277000	1.680210
5.278000	1.703723
5.279000	1.722404
5.280000	1.696959
5.281000	1.609027
5.282000	1.519807
5.283000	1.476324
5.284000	1.436706
5.285000	1.468271
5.286000	1.509822
5.287000	1.557814
5.288000	1.565866
5.289000	1.559424
5.290000	1.522061
5.291000	1.520773
5.292000	1.538810
5.293000	1.582293
5.294000	1.615791
5.295000	1.606128
5.296000	1.617723
5.297000	1.608060
5.298000	1.585514
5.299000	1.570697
5.300000	1.588091
5.301000	1.557492
5.302000	1.551050
5.303000	1.579072
5.304000	1.607738
5.305000	1.628997
5.306000	1.646068
5.307000	1.628674
5.308000	1.585514
5.309000	1.545896
5.310000	1.534623
5.311000	1.542675
5.312000	1.548795
5.313000	1.554593
5.314000	1.552982
5.315000	1.524960
5.316000	1.500159
5.317000	1.495327
5.318000	1.495005
5.319000	1.490818
5.320000	1.525282
5.321000	1.536878
5.322000	1.551050
5.323000	1.571986
5.324000	1.601941
5.325000	1.658951
5.326000	1.701790
5.327000	1.715962
5.328000	1.705655
5.329000	1.644135
5.330000	1.555237
5.331000	1.457964
5.332000	1.442504
5.333000	1.421568
5.334000	1.413515
5.335000	1.489208
5.336000	1.577461
5.337000	1.636083
5.338000	1.655408
5.339000	1.675056
5.340000	1.681176
5.341000	1.660884
5.342000	1.641880
5.343000	1.594532
5.344000	1.517230
5.345000	1.466661
5.346000	1.440571
5.347000	1.431875
5.348000	1.481477
5.349000	1.604517
5.350000	1.681820
5.351000	1.714352
5.352000	1.768786
5.353000	1.768464
5.354000	1.702434
5.355000	1.610637
5.356000	1.518196
5.357000	1.447335
5.358000	1.409972
5.359000	1.425111
5.360000	1.468916
5.361000	1.516908
5.362000	1.563933
5.363000	1.574885
5.364000	1.564578
5.365000	1.561357
5.366000	1.550728
5.367000	1.542997
5.368000	1.537522
5.369000	1.519162
5.370000	1.504668
5.371000	1.485987
5.372000	1.479545
5.373000	1.478901
5.374000	1.450556
5.375000	1.446047
5.376000	1.447013
5.377000	1.470204
5.378000	1.478256
5.379000	1.512076
5.380000	1.591634
5.381000	1.678277
5.382000	1.780059
5.383000	1.870568
5.384000	1.869601
5.385000	1.806471
5.386000	1.721760
5.387000	1.642525
5.388000	1.570053
5.389000	1.493717
5.390000	1.455066
5.391000	1.465050
5.392000	1.465695
5.393000	1.463762
5.394000	1.509822
5.395000	1.548473
5.396000	1.556203
5.397000	1.565222
5.398000	1.610637
5.399000	1.658629
5.400000	1.705011
5.401000	1.726591
5.402000	1.727558
5.403000	1.729168
5.404000	1.769430
5.405000	1.791010
5.406000	1.796164
5.407000	1.746883
5.408000	1.653154
5.409000	1.565222
5.410000	1.497904
5.411000	1.428010
5.412000	1.349741
5.413000	1.343299
5.414000	1.361658
5.415000	1.402242
5.416000	1.408362
5.417000	1.440571
5.418000	1.489852
5.419000	1.526248
5.420000	1.552660
5.421000	1.573596
5.422000	1.559424
5.423000	1.523027
5.424000	1.478901
5.425000	1.474069
5.426000	1.506601
5.427000	1.522061
5.428000	1.506601
5.429000	1.517230
5.430000	1.485020
5.431000	1.466661
5.432000	1.501447
5.433000	1.579394
5.434000	1.629641
5.435000	1.655730
5.436000	1.662494
5.437000	1.664105
5.438000	1.658951
5.439000	1.655086
5.440000	1.643491
5.441000	1.650577
5.442000	1.668936
5.443000	1.677633
5.444000	1.627708
5.445000	1.578428
5.446000	1.512398
5.447000	1.473103
5.448000	1.541709
5.449000	1.612248
5.450000	1.702434
5.451000	1.780381
5.452000	1.798740
5.453000	1.732711
5.454000	1.628674
5.455000	1.558780
5.456000	1.506279
5.457000	1.495327
5.458000	1.513043
5.459000	1.521417
5.460000	1.489530
5.461000	1.469560
5.462000	1.453777
5.463000	1.461507
5.464000	1.449912
5.465000	1.454743
5.466000	1.472459
5.467000	1.485665
5.468000	1.517230
5.469000	1.542997
5.470000	1.560068
5.471000	1.617079
5.472000	1.625131
5.473000	1.591634
5.474000	1.568121
5.475000	1.543319
5.476000	1.553949
5.477000	1.545896
5.478000	1.519807
5.479000	1.538166
5.480000	1.605162
5.481000	1.650577
5.482000	1.678599
5.483000	1.673446
5.484000	1.666037
5.485000	1.622555
5.486000	1.578106
5.487000	1.615469
5.488000	1.661206
5.489000	1.690195
5.490000	1.682142
5.491000	1.617723
5.492000	1.547507
5.493000	1.478901
5.494000	1.416736
5.495000	1.405141
5.496000	1.448624
5.497000	1.514331
5.498000	1.542675
5.499000	1.530114
5.500000	1.506923
5.501000	1.510788
5.502000	1.549761
5.503000	1.584225
5.504000	1.595499
5.505000	1.578106
5.506000	1.546540
5.507000	1.532046
5.508000	1.522061
5.509000	1.506923
5.510000	1.508211
5.511000	1.569409
5.512000	1.690839
5.513000	1.804538
5.514000	1.858972
5.515000	1.886028
5.516000	1.851564
5.517000	1.755902
5.518000	1.616113
5.519000	1.439605
5.520000	1.336535
5.521000	1.331703
5.522000	1.437350
5.523000	1.541387
5.524000	1.595499
5.525000	1.590345
5.526000	1.552338
5.527000	1.489852
5.528000	1.407073
5.529000	1.357793
5.530000	1.355860
5.531000	1.379373
5.532000	1.420601
5.533000	1.476002
5.534000	1.520773
5.535000	1.548473
5.536000	1.555881
5.537000	1.577139
5.538000	1.570375
5.539000	1.545252
5.540000	1.514331
5.541000	1.465695
5.542000	1.465373
5.543000	1.518196
5.544000	1.551372
5.545000	1.650899
5.546000	1.739153
5.547000	1.750748
5.548000	1.781992
5.549000	1.822898
5.550000	1.848987
5.551000	1.813557
5.552000	1.725947
5.553000	1.615469
5.554000	1.535267
5.555000	1.512076
5.556000	1.505956
5.557000	1.452811
5.558000	1.418669
5.559000	1.427365
5.560000	1.448302
5.561000	1.481155
5.562000	1.564256
5.563000	1.715962
5.564000	1.841579
5.565000	1.916305
5.566000	1.907286
5.567000	1.829984
5.568000	1.702112
5.569000	1.517230
5.570000	1.371643
5.571000	1.344587
5.572000	1.381950
5.573000	1.443148
5.574000	1.475680
5.575000	1.495649
5.576000	1.520773
5.577000	1.505956
5.578000	1.486631
5.579000	1.492751
5.580000	1.534945
5.581000	1.653154
5.582000	1.800351
5.583000	1.875077
5.584000	1.877332
5.585000	1.796808
5.586000	1.654442
5.587000	1.555881
5.588000	1.499837
5.589000	1.446691
5.590000	1.419635
5.591000	1.401598
5.592000	1.437350
5.593000	1.472137
5.594000	1.476324
5.595000	1.482444
5.596000	1.499192
5.597000	1.522061
5.598000	1.552338
5.599000	1.557814
5.600000	1.557169
5.601000	1.545574
5.602000	1.522705
5.603000	1.530436
5.604000	1.498870
5.605000	1.479545
5.606000	1.507889
5.607000	1.546862
5.608000	1.624165
5.609000	1.723370
5.610000	1.783602
5.611000	1.771362
5.612000	1.713707
5.613000	1.665071
5.614000	1.592278
5.615000	1.488885
5.616000	1.461185
5.617000	1.515941
5.618000	1.572952
5.619000	1.598720
5.620000	1.595499
5.621000	1.553949
5.622000	1.511754
5.623000	1.471170
5.624000	1.456032
5.625000	1.433807
5.626000	1.449912
5.627000	1.515297
5.628000	1.498870
5.629000	1.496938
5.630000	1.550406
5.631000	1.568443
5.632000	1.559746
5.633000	1.521739
5.634000	1.446691
5.635000	1.441860
5.636000	1.539776
5.637000	1.700824
5.638000	1.827085
5.639000	1.857362
5.640000	1.851242
5.641000	1.823864
5.642000	1.727880
5.643000	1.595821
5.644000	1.518840
5.645000	1.474069
5.646000	1.504024
5.647000	1.560713
5.648000	1.671835
5.649000	1.712741
5.650000	1.695670
5.651000	1.628352
5.652000	1.578750
5.653000	1.514975
5.654000	1.465050
5.655000	1.467949
5.656000	1.483732
5.657000	1.487597
5.658000	1.469882
5.659000	1.466339
5.660000	1.488563
5.661000	1.490818
5.662000	1.466983
5.663000	1.455388
5.664000	1.417703
5.665000	1.406751
5.666000	1.411905
5.667000	1.449590
5.668000	1.542031
5.669000	1.608383
5.670000	1.634472
5.671000	1.632540
5.672000	1.636727
5.673000	1.668614
5.674000	1.711775
5.675000	1.726913
5.676000	1.660240
5.677000	1.526571
5.678000	1.468916
5.679000	1.489208
5.680000	1.562323
5.681000	1.578106
5.682000	1.593244
5.683000	1.633506
5.684000	1.627064
5.685000	1.633506
5.686000	1.675378
5.687000	1.726913
5.688000	1.711453
5.689000	1.643813
5.690000	1.584225
5.691000	1.545574
5.692000	1.553949
5.693000	1.571664
5.694000	1.566510
5.695000	1.579394
5.696000	1.572630
5.697000	1.578106
5.698000	1.626742
5.699000	1.672801
5.700000	1.722726
5.701000	1.723692
5.702000	1.696636
5.703000	1.658629
5.704000	1.577784
5.705000	1.557492
5.706000	1.510466
5.707000	1.437028
5.708000	1.364557
5.709000	1.305292
5.710000	1.274693
5.711000	1.334924
5.712000	1.434451
5.713000	1.528181
5.714000	1.593244
5.715000	1.628674
5.716000	1.614502
5.717000	1.572630
5.718000	1.536555
5.719000	1.507889
5.720000	1.484054
5.721000	1.475035
5.722000	1.501769
5.723000	1.549117
5.724000	1.630929
5.725000	1.690517
5.726000	1.703723
5.727000	1.678599
5.728000	1.646068
5.729000	1.635438
5.730000	1.590023
5.731000	1.478901
5.732000	1.461507
5.733000	1.495327
5.734000	1.571342
5.735000	1.632218
5.736000	1.708232
5.737000	1.762022
5.738000	1.749782
5.739000	1.731745
5.740000	1.731423
5.741000	1.781347
5.742000	1.847699
5.743000	1.867991
5.744000	1.853819
5.745000	1.774905
5.746000	1.700179
5.747000	1.576817
5.748000	1.450234
5.749000	1.415770
5.750000	1.443470
5.751000	1.454421
5.752000	1.498548
5.753000	1.535267
5.754000	1.515619
5.755000	1.460863
5.756000	1.398377
5.757000	1.345231
5.758000	1.323007
5.759000	1.399343
5.760000	1.508533
5.761000	1.566832
5.762000	1.733999
5.763000	1.895047
5.764000	2.019375
5.765000	2.074776
5.766000	2.017121
5.767000	1.858972
5.768000	1.671191
5.769000	1.463440
5.770000	1.297561
5.771000	1.246993
5.772000	1.246670
5.773000	1.332348
5.774000	1.437672
5.775000	1.485020
5.776000	1.458931
5.777000	1.450556
5.778000	1.439605
5.779000	1.433163
5.780000	1.432197
5.781000	1.506279
5.782000	1.654764
5.783000	1.729168
5.784000	1.747527
5.785000	1.712097
5.786000	1.687940
5.787000	1.674090
5.788000	1.705977
5.789000	1.729812
5.790000	1.702434
5.791000	1.699857
5.792000	1.628997
5.793000	1.477290
5.794000	1.330737
5.795000	1.272438
5.796000	1.275659
5.797000	1.323329
5.798000	1.378729
5.799000	1.441215
5.800000	1.509822
5.801000	1.557814
5.802000	1.593888
5.803000	1.624809
5.804000	1.616113
5.805000	1.580360
5.806000	1.596143
5.807000	1.614180
5.808000	1.612248
5.809000	1.585514
5.810000	1.547185
5.811000	1.554915
5.812000	1.622555
5.813000	1.721760
5.814000	1.805182
5.815000	1.807437
5.816000	1.740441
5.817000	1.638659
5.818000	1.536878
5.819000	1.433807
5.820000	1.352317
5.821000	1.338789
5.822000	1.348130
5.823000	1.366812
5.824000	1.448946
5.825000	1.527859
5.826000	1.571342
5.827000	1.626420
5.828000	1.663783
5.829000	1.658307
5.830000	1.668936
5.831000	1.665071
5.832000	1.634150
5.833000	1.577461
5.834000	1.538166
5.835000	1.547829
5.836000	1.573274
5.837000	1.587124
5.838000	1.522383
5.839000	1.504024
5.840000	1.533012
5.841000	1.539454
5.842000	1.515619
5.843000	1.518840
5.844000	1.515941
5.845000	1.528181
5.846000	1.514975
5.847000	1.545574
5.848000	1.612892
5.849000	1.621910
5.850000	1.578750
5.851000	1.538166
5.852000	1.539132
5.853000	1.531724
5.854000	1.489530
5.855000	1.478578
5.856000	1.465373
5.857000	1.458286
5.858000	1.446047
5.859000	1.457320
5.860000	1.553626
5.861000	1.689228
5.862000	1.767175
5.863000	1.858972
5.864000	1.934342
5.865000	1.923391
5.866000	1.830628
5.867000	1.711131
5.868000	1.591634
5.869000	1.544930
5.870000	1.563933
5.871000	1.527859
5.872000	1.473425
5.873000	1.401920
5.874000	1.342977
5.875000	1.294018
5.876000	1.301104
5.877000	1.417703
5.878000	1.500481
5.879000	1.603551
5.880000	1.655086
5.881000	1.631573
5.882000	1.641236
5.883000	1.669258
5.884000	1.673124
5.885000	1.650899
5.886000	1.641236
5.887000	1.625776
5.888000	1.577784
5.889000	1.514653
5.890000	1.400309
5.891000	1.336857
5.892000	1.348130
5.893000	1.398055
5.894000	1.440571
5.895000	1.492106
5.896000	1.539132
5.897000	1.565866
5.898000	1.575851
5.899000	1.597109
5.900000	1.671835
5.901000	1.692449
5.902000	1.685685
5.903000	1.625776
5.904000	1.532368
5.905000	1.527859
5.906000	1.593888
5.907000	1.644135
5.908000	1.684397
5.909000	1.718217
5.910000	1.757834
5.911000	1.762022
5.912000	1.716928
5.913000	1.633184
5.914000	1.541387
5.915000	1.454421
5.916000	1.406107
5.917000	1.390969
5.918000	1.438317
5.919000	1.574885
5.920000	1.673124
5.921000	1.742374
5.922000	1.779093
5.923000	1.740119
5.924000	1.681498
5.925000	1.528503
5.926000	1.427365
5.927000	1.459575
5.928000	1.561035
5.929000	1.603873
5.930000	1.613214
5.931000	1.567154
5.932000	1.522061
5.933000	1.543964
5.934000	1.556203
5.935000	1.568765
5.936000	1.558136
5.937000	1.541065
5.938000	1.504346
5.939000	1.495649
5.940000	1.487597
5.941000	1.438639
5.942000	1.413193
5.943000	1.463440
5.944000	1.491462
5.945000	1.525926
5.946000	1.551050
5.947000	1.549117
5.948000	1.540098
5.949000	1.530114
5.950000	1.534301
5.951000	1.549439
5.952000	1.607738
5.953000	1.649611
5.954000	1.661850
5.955000	1.687296
5.956000	1.714030
5.957000	1.682142
5.958000	1.631251
5.959000	1.548473
5.960000	1.553304
5.961000	1.657663
5.962000	1.734321
5.963000	1.831916
5.964000	1.896335
5.965000	1.865092
5.966000	1.739797
5.967000	1.590667
5.968000	1.407718
5.969000	1.283711
5.970000	1.243127
5.971000	1.262775
5.972000	1.290797
5.973000	1.311734
5.974000	1.421246
5.975000	1.513687
5.976000	1.600008
5.977000	1.643813
5.978000	1.657019
5.979000	1.625776
5.980000	1.557169
5.981000	1.466661
5.982000	1.418991
5.983000	1.408040
5.984000	1.403853
5.985000	1.388392
5.986000	1.368100
5.987000	1.387748
5.988000	1.437995
5.989000	1.544608
5.990000	1.686974
5.991000	1.759767
5.992000	1.749138
5.993000	1.707910
5.994000	1.667326
5.995000	1.651221
5.996000	1.619334
5.997000	1.609349
5.998000	1.597109
5.999000	1.597109
6.000000	1.636727
6.001000	1.693738
6.002000	1.740441
6.003000	1.781347
6.004000	1.825152
6.005000	1.801317
6.006000	1.775550
6.007000	1.720471
6.008000	1.639626
6.009000	1.476002
6.010000	1.343621
6.011000	1.279524
6.012000	1.283067
6.013000	1.291119
6.014000	1.367134
6.015000	1.517552
6.016000	1.695992
6.017000	1.870245
6.018000	1.988776
6.019000	2.012611
6.020000	1.931766
6.021000	1.792621
6.022000	1.585192
6.023000	1.375508
6.024000	1.346198
6.025000	1.389680
6.026000	1.424144
6.027000	1.490174
6.028000	1.523027
6.029000	1.459897
6.030000	1.366167
6.031000	1.350063
6.032000	1.294018
6.033000	1.281135
6.034000	1.380340
6.035000	1.523672
6.036000	1.634150
6.037000	1.705333
6.038000	1.667970
6.039000	1.609027
6.040000	1.552338
6.041000	1.502091
6.042000	1.486309
6.043000	1.490818
6.044000	1.502413
6.045000	1.510788
6.046000	1.554593
6.047000	1.615147
6.048000	1.660884
6.049000	1.687618
6.050000	1.703723
6.051000	1.695026
6.052000	1.696314
6.053000	1.673446
6.054000	1.639304
6.055000	1.610315
6.056000	1.585514
6.057000	1.542031
6.058000	1.463762
6.059000	1.436062
6.060000	1.454421
6.061000	1.491140
6.062000	1.506279
6.063000	1.523350
6.064000	1.585836
6.065000	1.664105
6.066000	1.682786
6.067000	1.681820
6.068000	1.654442
6.069000	1.602907
6.070000	1.536878
6.071000	1.461507
6.072000	1.417058
6.073000	1.471170
6.074000	1.612248
6.075000	1.723692
6.076000	1.734321
6.077000	1.728202
6.078000	1.703400
6.079000	1.661206
6.080000	1.576817
6.081000	1.490496
6.082000	1.440249
6.083000	1.482121
6.084000	1.578106
6.085000	1.633506
6.086000	1.686329
6.087000	1.744629
6.088000	1.777160
6.089000	1.699857
6.090000	1.575207
6.091000	1.485342
6.092000	1.450878
6.093000	1.459253
6.094000	1.460863
6.095000	1.442182
6.096000	1.409328
6.097000	1.396122
6.098000	1.387104
6.099000	1.394834
6.100000	1.421890
6.101000	1.447013
6.102000	1.495005
6.103000	1.513043
6.104000	1.519484
6.105000	1.573918
6.106000	1.657663
6.107000	1.691483
6.108000	1.674090
6.109000	1.672157
6.110000	1.666360
6.111000	1.614824
6.112000	1.593888
6.113000	1.589379
6.114000	1.562323
6.115000	1.586480
6.116000	1.676344
6.117000	1.731745
6.118000	1.703723
6.119000	1.688262
6.120000	1.650577
6.121000	1.555559
6.122000	1.442182
6.123000	1.387426
6.124000	1.454421
6.125000	1.557492
6.126000	1.667970
6.127000	1.736898
6.128000	1.755580
6.129000	1.736576
6.130000	1.656697
6.131000	1.560713
6.132000	1.457642
6.133000	1.365201
6.134000	1.399665
6.135000	1.506923
6.136000	1.602585
6.137000	1.640592
6.138000	1.686651
6.139000	1.704367
6.140000	1.645745
6.141000	1.551050
6.142000	1.519807
6.143000	1.532046
6.144000	1.520451
6.145000	1.435096
6.146000	1.426399
6.147000	1.440571
6.148000	1.491462
6.149000	1.552016
6.150000	1.611281
6.151000	1.631573
6.152000	1.641236
6.153000	1.640914
6.154000	1.603873
6.155000	1.516908
6.156000	1.453455
6.157000	1.446691
6.158000	1.502091
6.159000	1.564900
6.160000	1.609993
6.161000	1.608060
6.162000	1.576173
6.163000	1.554593
6.164000	1.511432
6.165000	1.495005
6.166000	1.495005
6.167000	1.468593
6.168000	1.455066
6.169000	1.431875
6.170000	1.428332
6.171000	1.456354
6.172000	1.556203
6.173000	1.652509
6.174000	1.677311
6.175000	1.671513
6.176000	1.633184
6.177000	1.617723
6.178000	1.620300
6.179000	1.638337
6.180000	1.646712
6.181000	1.661850
6.182000	1.678921
6.183000	1.709198
6.184000	1.772973
6.185000	1.749782
6.186000	1.688262
6.187000	1.661206
6.188000	1.608383
6.189000	1.530436
6.190000	1.498870
6.191000	1.512720
6.192000	1.542353
6.193000	1.584548
6.194000	1.598720
6.195000	1.601941
6.196000	1.606128
6.197000	1.601296
6.198000	1.571986
6.199000	1.495649
6.200000	1.511432
6.201000	1.555881
6.202000	1.633828
6.203000	1.669903
6.204000	1.619012
6.205000	1.550406
6.206000	1.495972
6.207000	1.463440
6.208000	1.423178
6.209000	1.431875
6.210000	1.526248
6.211000	1.594855
6.212000	1.651865
6.213000	1.648966
6.214000	1.578428
6.215000	1.563611
6.216000	1.516908
6.217000	1.466017
6.218000	1.470204
6.219000	1.476646
6.220000	1.487919
6.221000	1.505312
6.222000	1.526571
6.223000	1.574240
6.224000	1.624165
6.225000	1.677955
6.226000	1.708876
6.227000	1.666360
6.228000	1.576817
6.229000	1.534945
6.230000	1.533012
6.231000	1.503380
6.232000	1.472459
6.233000	1.514009
6.234000	1.530114
6.235000	1.509177
6.236000	1.504668
6.237000	1.498870
6.238000	1.514009
6.239000	1.569731
6.240000	1.643813
6.241000	1.691483
6.242000	1.728202
6.243000	1.679243
6.244000	1.607738
6.245000	1.556847
6.246000	1.557492
6.247000	1.571020
6.248000	1.540743
6.249000	1.514653
6.250000	1.546540
6.251000	1.621266
6.252000	1.645423
6.253000	1.600330
6.254000	1.568443
6.255000	1.592278
6.256000	1.636727
6.257000	1.647356
6.258000	1.642525
6.259000	1.611926
6.260000	1.568443
6.261000	1.547185
6.262000	1.486309
6.263000	1.394512
6.264000	1.377441
6.265000	1.403530
6.266000	1.452489
6.267000	1.506601
6.268000	1.532368
6.269000	1.592600
6.270000	1.635761
6.271000	1.647678
6.272000	1.599364
6.273000	1.565544
6.274000	1.538166
6.275000	1.508211
6.276000	1.487597
6.277000	1.502091
6.278000	1.528503
6.279000	1.563289
6.280000	1.581327
6.281000	1.605162
6.282000	1.643491
6.283000	1.656053
6.284000	1.638015
6.285000	1.621588
6.286000	1.623521
6.287000	1.630285
6.288000	1.600008
6.289000	1.556525
6.290000	1.580682
6.291000	1.660240
6.292000	1.703723
6.293000	1.694060
6.294000	1.644135
6.295000	1.548795
6.296000	1.475680
6.297000	1.466661
6.298000	1.428976
6.299000	1.402886
6.300000	1.466661
6.301000	1.521739
6.302000	1.572630
6.303000	1.646068
6.304000	1.709842
6.305000	1.766531
6.306000	1.748816
6.307000	1.690517
6.308000	1.527537
6.309000	1.434774
6.310000	1.427043
6.311000	1.425111
6.312000	1.435418
6.313000	1.490496
6.314000	1.550728
6.315000	1.596465
6.316000	1.613214
6.317000	1.625454
6.318000	1.626742
6.319000	1.624809
6.320000	1.635761
6.321000	1.581004
6.322000	1.550406
6.323000	1.554915
6.324000	1.544286
6.325000	1.516586
6.326000	1.534945
6.327000	1.607416
6.328000	1.661850
6.329000	1.669580
6.330000	1.654764
6.331000	1.603873
6.332000	1.532046
6.333000	1.468593
6.334000	1.405785
6.335000	1.410616
6.336000	1.470848
6.337000	1.508855
6.338000	1.541709
6.339000	1.549761
6.340000	1.542353
6.341000	1.534301
6.342000	1.537844
6.343000	1.517552
6.344000	1.530114
6.345000	1.589379
6.346000	1.603551
6.347000	1.581327
6.348000	1.561357
6.349000	1.539776
6.350000	1.562645
6.351000	1.633184
6.352000	1.668936
6.353000	1.658307
6.354000	1.636083
6.355000	1.600008
6.356000	1.575529
6.357000	1.574240
6.358000	1.565222
6.359000	1.526893
6.360000	1.512720
6.361000	1.545574
6.362000	1.582937
6.363000	1.604517
6.364000	1.609993
6.365000	1.576817
6.366000	1.531080
6.367000	1.506923
6.368000	1.525282
6.369000	1.617723
6.370000	1.679243
6.371000	1.727235
6.372000	1.802606
6.373000	1.744306
6.374000	1.604517
6.375000	1.548151
6.376000	1.585192
6.377000	1.656697
6.378000	1.678921
6.379000	1.666360
6.380000	1.632540
6.381000	1.594532
6.382000	1.534945
6.383000	1.432197
6.384000	1.362302
6.385000	1.373254
6.386000	1.420279
6.387000	1.506279
6.388000	1.562645
6.389000	1.590989
6.390000	1.582937
6.391000	1.560713
6.392000	1.520773
6.393000	1.476646
6.394000	1.448302
6.395000	1.439927
6.396000	1.447979
6.397000	1.436384
6.398000	1.467627
6.399000	1.513687
6.400000	1.562001
6.401000	1.597109
6.402000	1.643169
6.403000	1.714996
6.404000	1.787467
6.405000	1.835781
6.406000	1.786179
6.407000	1.638659
6.408000	1.490174
6.409000	1.407718
6.410000	1.352962
6.411000	1.318175
6.412000	1.351029
6.413000	1.398699
6.414000	1.446691
6.415000	1.515941
6.416000	1.578106
6.417000	1.587124
6.418000	1.594855
6.419000	1.607416
6.420000	1.608060
6.421000	1.620622
6.422000	1.649933
6.423000	1.679243
6.424000	1.681498
6.425000	1.655730
6.426000	1.625454
6.427000	1.566832
6.428000	1.518196
6.429000	1.521095
6.430000	1.547507
6.431000	1.526571
6.432000	1.505634
6.433000	1.523350
6.434000	1.571342
6.435000	1.661850
6.436000	1.768464
6.437000	1.798418
6.438000	1.760733
6.439000	1.689872
6.440000	1.622233
6.441000	1.560068
6.442000	1.531724
6.443000	1.579072
6.444000	1.639304
6.445000	1.647356
6.446000	1.656375
6.447000	1.630929
6.448000	1.599042
6.449000	1.569087
6.450000	1.542031
6.451000	1.509499
6.452000	1.462796
6.453000	1.466983
6.454000	1.470526
6.455000	1.518518
6.456000	1.535267
6.457000	1.551050
6.458000	1.556203
6.459000	1.580682
6.460000	1.619978
6.461000	1.607094
6.462000	1.532046
6.463000	1.455066
6.464000	1.495327
6.465000	1.495972
6.466000	1.459897
6.467000	1.433807
6.468000	1.472459
6.469000	1.481155
6.470000	1.479545
6.471000	1.505956
6.472000	1.548795
6.473000	1.560390
6.474000	1.570053
6.475000	1.583259
6.476000	1.605806
6.477000	1.638659
6.478000	1.694060
6.479000	1.732067
6.480000	1.739475
6.481000	1.752037
6.482000	1.748816
6.483000	1.697603
6.484000	1.627386
6.485000	1.506279
6.486000	1.401598
6.487000	1.397411
6.488000	1.464084
6.489000	1.490174
6.490000	1.485020
6.491000	1.505312
6.492000	1.558136
6.493000	1.578428
6.494000	1.541065
6.495000	1.552660
6.496000	1.569731
6.497000	1.598075
6.498000	1.603873
6.499000	1.575851
6.500000	1.535267
6.501000	1.496294
6.502000	1.504346
6.503000	1.532368
6.504000	1.526893
6.505000	1.556525
6.506000	1.625454
6.507000	1.716928
6.508000	1.758479
6.509000	1.732389
6.510000	1.726269
6.511000	1.679243
6.512000	1.651543
6.513000	1.605484
6.514000	1.514331
6.515000	1.475357
6.516000	1.453133
6.517000	1.509177
6.518000	1.601296
6.519000	1.702434
6.520000	1.758801
6.521000	1.747849
6.522000	1.670869
6.523000	1.569409
6.524000	1.466339
6.525000	1.377119
6.526000	1.357149
6.527000	1.397733
6.528000	1.469560
6.529000	1.518840
6.530000	1.502091
6.531000	1.504990
6.532000	1.509177
6.533000	1.501769
6.534000	1.501447
6.535000	1.513365
6.536000	1.513365
6.537000	1.510466
6.538000	1.538488
6.539000	1.571986
6.540000	1.582615
6.541000	1.593244
6.542000	1.604517
6.543000	1.609349
6.544000	1.603551
6.545000	1.587124
6.546000	1.531402
6.547000	1.455388
6.548000	1.430908
6.549000	1.449590
6.550000	1.474069
6.551000	1.487597
6.552000	1.560390
6.553000	1.622877
6.554000	1.654764
6.555000	1.663139
6.556000	1.645423
6.557000	1.614824
6.558000	1.596143
6.559000	1.603873
6.560000	1.596465
6.561000	1.562001
6.562000	1.527859
6.563000	1.544286
6.564000	1.573274
6.565000	1.606450
6.566000	1.604517
6.567000	1.597109
6.568000	1.597109
6.569000	1.575207
6.570000	1.552338
6.571000	1.567154
6.572000	1.607094
6.573000	1.630285
6.574000	1.649289
6.575000	1.618367
6.576000	1.571986
6.577000	1.549117
6.578000	1.559746
6.579000	1.571020
6.580000	1.574885
6.581000	1.594210
6.582000	1.588413
6.583000	1.546218
6.584000	1.517552
6.585000	1.527215
6.586000	1.523672
6.587000	1.509499
6.588000	1.563611
6.589000	1.618045
6.590000	1.618690
6.591000	1.629641
6.592000	1.661206
6.593000	1.669580
6.594000	1.649289
6.595000	1.576817
6.596000	1.497582
6.597000	1.522061
6.598000	1.593888
6.599000	1.579072
6.600000	1.527537
6.601000	1.542353
6.602000	1.577784
6.603000	1.598075
6.604000	1.620944
6.605000	1.675700
6.606000	1.746561
6.607000	1.789078
6.608000	1.786501
6.609000	1.715318
6.610000	1.606772
6.611000	1.498548
6.612000	1.391935
6.613000	1.338789
6.614000	1.331703
6.615000	1.379695
6.616000	1.456998
6.617000	1.544930
6.618000	1.614502
6.619000	1.609027
6.620000	1.600008
6.621000	1.581971
6.622000	1.556203
6.623000	1.524960
6.624000	1.514009
6.625000	1.519484
6.626000	1.535911
6.627000	1.560390
6.628000	1.560390
6.629000	1.557814
6.630000	1.573596
6.631000	1.606450
6.632000	1.630607
6.633000	1.628674
6.634000	1.615469
6.635000	1.585836
6.636000	1.528181
6.637000	1.480189
6.638000	1.437672
6.639000	1.428976
6.640000	1.473425
6.641000	1.553949
6.642000	1.616757
6.643000	1.649289
6.644000	1.665393
6.645000	1.671835
6.646000	1.663461
6.647000	1.620622
6.648000	1.571020
6.649000	1.559424
6.650000	1.565866
6.651000	1.570375
6.652000	1.523350
6.653000	1.541065
6.654000	1.548473
6.655000	1.546218
6.656000	1.533012
6.657000	1.518840
6.658000	1.505312
6.659000	1.513043
6.660000	1.546540
6.661000	1.559102
6.662000	1.573918
6.663000	1.560713
6.664000	1.561035
6.665000	1.581649
6.666000	1.614502
6.667000	1.623521
6.668000	1.633506
6.669000	1.601296
6.670000	1.526893
6.671000	1.512076
6.672000	1.519162
6.673000	1.498226
6.674000	1.500481
6.675000	1.560068
6.676000	1.609349
6.677000	1.651221
6.678000	1.668292
6.679000	1.667326
6.680000	1.656697
6.681000	1.693093
6.682000	1.734644
6.683000	1.751393
6.684000	1.756868
6.685000	1.708232
6.686000	1.628352
6.687000	1.559102
6.688000	1.470526
6.689000	1.396766
6.690000	1.405141
6.691000	1.435418
6.692000	1.468593
6.693000	1.484376
6.694000	1.473425
6.695000	1.451845
6.696000	1.459575
6.697000	1.497260
6.698000	1.529791
6.699000	1.560390
6.700000	1.577139
6.701000	1.554593
6.702000	1.560068
6.703000	1.549439
6.704000	1.559746
6.705000	1.606772
6.706000	1.696314
6.707000	1.772651
6.708000	1.804216
6.709000	1.834171
6.710000	1.811624
6.711000	1.709842
6.712000	1.632862
6.713000	1.570697
6.714000	1.510466
6.715000	1.481155
6.716000	1.474391
6.717000	1.495649
6.718000	1.558136
6.719000	1.611603
6.720000	1.635761
6.721000	1.625131
6.722000	1.569409
6.723000	1.509822
6.724000	1.467627
6.725000	1.385493
6.726000	1.379695
6.727000	1.447335
6.728000	1.499837
6.729000	1.545252
6.730000	1.574885
6.731000	1.572630
6.732000	1.558780
6.733000	1.563289
6.734000	1.548473
6.735000	1.511110
6.736000	1.488241
6.737000	1.485342
6.738000	1.518196
6.739000	1.585514
6.740000	1.638981
6.741000	1.656053
6.742000	1.660240
6.743000	1.660884
6.744000	1.656697
6.745000	1.631895
6.746000	1.595499
6.747000	1.541387
6.748000	1.499837
6.749000	1.479223
6.750000	1.450234
6.751000	1.429942
6.752000	1.444759
6.753000	1.540743
6.754000	1.667648
6.755000	1.777160
6.756000	1.879586
6.757000	1.913728
6.758000	1.921459
6.759000	1.899556
6.760000	1.812268
6.761000	1.711775
6.762000	1.618045
6.763000	1.537844
6.764000	1.406751
6.765000	1.279846
6.766000	1.224768
6.767000	1.237008
6.768000	1.303681
6.769000	1.426399
6.770000	1.544608
6.771000	1.622555
6.772000	1.684075
6.773000	1.667326
6.774000	1.595821
6.775000	1.588413
6.776000	1.590023
6.777000	1.561357
6.778000	1.527859
6.779000	1.501769
6.780000	1.472781
6.781000	1.445081
6.782000	1.420601
6.783000	1.494683
6.784000	1.619656
6.785000	1.693738
6.786000	1.749782
6.787000	1.799707
6.788000	1.801961
6.789000	1.792943
6.790000	1.743662
6.791000	1.626420
6.792000	1.506601
6.793000	1.403530
6.794000	1.299816
6.795000	1.247959
6.796000	1.268573
6.797000	1.399665
6.798000	1.576817
6.799000	1.651865
6.800000	1.650899
6.801000	1.644457
6.802000	1.656375
6.803000	1.665071
6.804000	1.641880
6.805000	1.613214
6.806000	1.600330
6.807000	1.574885
6.808000	1.575207
6.809000	1.566832
6.810000	1.532368
6.811000	1.514653
6.812000	1.528825
6.813000	1.553626
6.814000	1.557492
6.815000	1.530436
6.816000	1.515941
6.817000	1.515941
6.818000	1.504346
6.819000	1.524638
6.820000	1.576173
6.821000	1.596143
6.822000	1.580682
6.823000	1.523994
6.824000	1.515941
6.825000	1.550728
6.826000	1.603229
6.827000	1.639626
6.828000	1.690839
6.829000	1.730456
6.830000	1.735932
6.831000	1.693093
6.832000	1.645101
6.833000	1.593244
6.834000	1.549761
6.835000	1.519162
6.836000	1.536555
6.837000	1.542031
6.838000	1.550083
6.839000	1.559746
6.840000	1.572630
6.841000	1.581327
6.842000	1.573274
6.843000	1.587124
6.844000	1.609349
6.845000	1.586802
6.846000	1.540743
6.847000	1.486309
6.848000	1.452167
6.849000	1.450878
6.850000	1.471814
6.851000	1.501769
6.852000	1.533334
6.853000	1.553949
6.854000	1.573596
6.855000	1.643491
6.856000	1.720471
6.857000	1.737542
6.858000	1.736254
6.859000	1.724014
6.860000	1.717573
6.861000	1.656375
6.862000	1.543964
6.863000	1.460863
6.864000	1.409972
6.865000	1.443148
6.866000	1.524638
6.867000	1.601941
6.868000	1.613536
6.869000	1.561035
6.870000	1.519162
6.871000	1.524316
6.872000	1.548795
6.873000	1.503380
6.874000	1.482444
6.875000	1.503380
6.876000	1.501447
6.877000	1.492106
6.878000	1.491462
6.879000	1.493073
6.880000	1.511110
6.881000	1.539454
6.882000	1.565544
6.883000	1.610959
6.884000	1.677311
6.885000	1.741408
6.886000	1.758479
6.887000	1.725303
6.888000	1.675378
6.889000	1.638981
6.890000	1.617723
6.891000	1.615147
6.892000	1.595821
6.893000	1.563933
6.894000	1.534945
6.895000	1.496616
6.896000	1.537200
6.897000	1.531080
6.898000	1.480511
6.899000	1.460541
6.900000	1.501447
6.901000	1.546540
6.902000	1.586802
6.903000	1.600974
6.904000	1.616757
6.905000	1.616757
6.906000	1.607416
6.907000	1.599042
6.908000	1.604839
6.909000	1.592600
6.910000	1.561357
6.911000	1.529147
6.912000	1.507567
6.913000	1.495649
6.914000	1.453777
6.915000	1.425433
6.916000	1.430586
6.917000	1.454421
6.918000	1.495005
6.919000	1.551050
6.920000	1.652509
6.921000	1.708876
6.922000	1.743984
6.923000	1.712741
6.924000	1.619334
6.925000	1.562323
6.926000	1.491140
6.927000	1.432197
6.928000	1.414482
6.929000	1.472137
6.930000	1.561035
6.931000	1.635116
6.932000	1.677311
6.933000	1.723370
6.934000	1.685363
6.935000	1.589701
6.936000	1.520773
6.937000	1.507567
6.938000	1.503058
6.939000	1.501125
6.940000	1.510466
6.941000	1.541709
6.942000	1.571342
6.943000	1.594532
6.944000	1.598720
6.945000	1.576817
6.946000	1.565544
6.947000	1.623199
6.948000	1.694060
6.949000	1.747849
6.950000	1.768786
6.951000	1.746561
6.952000	1.662816
6.953000	1.597109
6.954000	1.525926
6.955000	1.447335
6.956000	1.390002
6.957000	1.385171
6.958000	1.425111
6.959000	1.471170
6.960000	1.493073
6.961000	1.484698
6.962000	1.487919
6.963000	1.502736
6.964000	1.520773
6.965000	1.577139
6.966000	1.666682
6.967000	1.759445
6.968000	1.798418
6.969000	1.752037
6.970000	1.687940
6.971000	1.588091
6.972000	1.460863
6.973000	1.387748
6.974000	1.385171
6.975000	1.376152
6.976000	1.406751
6.977000	1.447335
6.978000	1.480511
6.979000	1.517230
6.980000	1.557169
6.981000	1.619978
6.982000	1.683108
6.983000	1.749460
6.984000	1.784890
6.985000	1.760733
6.986000	1.716606
6.987000	1.666360
6.988000	1.619334
6.989000	1.558136
6.990000	1.527215
6.991000	1.528825
6.992000	1.523994
6.993000	1.484054
6.994000	1.431875
6.995000	1.397733
6.996000	1.412871
6.997000	1.486309
6.998000	1.589057
6.999000	1.673768
7.000000	1.750104
7.001000	1.811946
7.002000	1.858650
7.003000	1.851886
7.004000	1.757834
7.005000	1.628352
7.006000	1.529469
7.007000	1.510144
7.008000	1.480511
7.009000	1.420924
7.010000	1.402242
7.011000	1.419957
7.012000	1.470526
7.013000	1.499837
7.014000	1.495005
7.015000	1.489852
7.016000	1.513365
7.017000	1.518840
7.018000	1.524638
7.019000	1.532046
7.020000	1.545574
7.021000	1.564578
7.022000	1.579716
7.023000	1.583581
7.024000	1.565866
7.025000	1.566188
7.026000	1.599042
7.027000	1.599686
7.028000	1.601619
7.029000	1.611603
7.030000	1.571020
7.031000	1.548795
7.032000	1.573596
7.033000	1.546862
7.034000	1.526571
7.035000	1.544286
7.036000	1.583581
7.037000	1.618367
7.038000	1.614502
7.039000	1.586802
7.040000	1.567799
7.041000	1.563289
7.042000	1.574563
7.043000	1.606128
7.044000	1.646390
7.045000	1.644457
7.046000	1.598720
7.047000	1.526571
7.048000	1.463118
7.049000	1.432841
7.050000	1.466017
7.051000	1.485342
7.052000	1.559746
7.053000	1.609993
7.054000	1.621266
7.055000	1.585514
7.056000	1.590989
7.057000	1.594210
7.058000	1.584870
7.059000	1.579394
7.060000	1.592922
7.061000	1.596143
7.062000	1.584548
7.063000	1.562967
7.064000	1.568121
7.065000	1.592922
7.066000	1.613536
7.067000	1.635438
7.068000	1.629319
7.069000	1.646068
7.070000	1.665715
7.071000	1.703723
7.072000	1.768786
7.073000	1.832882
7.074000	1.883129
7.075000	1.881841
7.076000	1.811302
7.077000	1.670225
7.078000	1.528825
7.079000	1.388070
7.080000	1.280490
7.081000	1.250213
7.082000	1.277592
7.083000	1.338467
7.084000	1.402886
7.085000	1.450878
7.086000	1.463118
7.087000	1.476002
7.088000	1.481799
7.089000	1.475035
7.090000	1.495972
7.091000	1.497260
7.092000	1.512076
7.093000	1.537522
7.094000	1.568121
7.095000	1.577461
7.096000	1.581004
7.097000	1.600008
7.098000	1.588091
7.099000	1.533979
7.100000	1.460863
7.101000	1.440893
7.102000	1.453777
7.103000	1.504346
7.104000	1.577461
7.105000	1.687618
7.106000	1.788755
7.107000	1.807759
7.108000	1.790688
7.109000	1.773939
7.110000	1.759445
7.111000	1.739475
7.112000	1.700179
7.113000	1.652187
7.114000	1.607416
7.115000	1.551694
7.116000	1.493395
7.117000	1.456676
7.118000	1.443148
7.119000	1.510788
7.120000	1.603229
7.121000	1.667970
7.122000	1.693738
7.123000	1.663461
7.124000	1.623521
7.125000	1.598720
7.126000	1.585192
7.127000	1.545896
7.128000	1.498226
7.129000	1.495972
7.130000	1.493395
7.131000	1.468593
7.132000	1.430264
7.133000	1.414804
7.134000	1.446047
7.135000	1.493073
7.136000	1.528825
7.137000	1.564578
7.138000	1.604839
7.139000	1.623199
7.140000	1.605806
7.141000	1.588735
7.142000	1.628352
7.143000	1.663783
7.144000	1.708232
7.145000	1.726591
7.146000	1.696959
7.147000	1.610637
7.148000	1.574563
7.149000	1.539132
7.150000	1.516586
7.151000	1.495005
7.152000	1.499837
7.153000	1.533334
7.154000	1.560390
7.155000	1.556847
7.156000	1.559746
7.157000	1.544930
7.158000	1.508211
7.159000	1.440893
7.160000	1.384849
7.161000	1.375186
7.162000	1.382594
7.163000	1.399665
7.164000	1.446691
7.165000	1.485665
7.166000	1.530436
7.167000	1.583903
7.168000	1.635116
7.169000	1.698247
7.170000	1.750426
7.171000	1.726913
7.172000	1.638337
7.173000	1.537522
7.174000	1.484054
7.175000	1.463118
7.176000	1.504024
7.177000	1.578106
7.178000	1.638337
7.179000	1.668614
7.180000	1.680854
7.181000	1.697281
7.182000	1.721760
7.183000	1.725625
7.184000	1.707910
7.185000	1.669903
7.186000	1.624809
7.187000	1.583581
7.188000	1.578106
7.189000	1.558780
7.190000	1.499192
7.191000	1.432197
7.192000	1.415448
7.193000	1.463118
7.194000	1.532368
7.195000	1.600652
7.196000	1.650899
7.197000	1.662172
7.198000	1.638015
7.199000	1.655730
7.200000	1.661850
7.201000	1.645745
7.202000	1.603229
7.203000	1.554271
7.204000	1.480833
7.205000	1.438317
7.206000	1.420601
7.207000	1.485342
7.208000	1.561679
7.209000	1.599042
7.210000	1.609027
7.211000	1.618045
7.212000	1.633828
7.213000	1.634472
7.214000	1.610315
7.215000	1.598398
7.216000	1.577139
7.217000	1.592278
7.218000	1.651865
7.219000	1.726269
7.220000	1.762022
7.221000	1.774905
7.222000	1.738831
7.223000	1.652832
7.224000	1.571986
7.225000	1.521739
7.226000	1.486309
7.227000	1.470526
7.228000	1.460863
7.229000	1.461830
7.230000	1.484698
7.231000	1.517874
7.232000	1.557814
7.233000	1.594855
7.234000	1.602585
7.235000	1.552660
7.236000	1.466339
7.237000	1.399665
7.238000	1.370033
7.239000	1.356183
7.240000	1.397733
7.241000	1.457320
7.242000	1.504346
7.243000	1.542675
7.244000	1.538166
7.245000	1.530436
7.246000	1.577461
7.247000	1.645101
7.248000	1.677955
7.249000	1.661528
7.250000	1.630929
7.251000	1.639304
7.252000	1.619656
7.253000	1.558458
7.254000	1.536233
7.255000	1.582293
7.256000	1.608705
7.257000	1.612570
7.258000	1.589379
7.259000	1.575207
7.260000	1.550083
7.261000	1.504024
7.262000	1.464406
7.263000	1.457320
7.264000	1.495327
7.265000	1.573596
7.266000	1.628674
7.267000	1.604517
7.268000	1.555881
7.269000	1.529147
7.270000	1.530436
7.271000	1.552338
7.272000	1.579072
7.273000	1.602585
7.274000	1.605484
7.275000	1.606128
7.276000	1.612248
7.277000	1.626420
7.278000	1.629963
7.279000	1.610315
7.280000	1.598075
7.281000	1.582615
7.282000	1.589379
7.283000	1.624487
7.284000	1.627386
7.285000	1.588413
7.286000	1.588413
7.287000	1.634472
7.288000	1.691161
7.289000	1.733677
7.290000	1.719505
7.291000	1.689872
7.292000	1.663461
7.293000	1.632862
7.294000	1.628997
7.295000	1.620300
7.296000	1.580360
7.297000	1.543319
7.298000	1.541387
7.299000	1.535589
7.300000	1.503380
7.301000	1.468593
7.302000	1.458286
7.303000	1.419957
7.304000	1.417058
7.305000	1.438317
7.306000	1.417058
7.307000	1.431553
7.308000	1.470526
7.309000	1.495649
7.310000	1.516263
7.311000	1.520451
7.312000	1.514653
7.313000	1.548151
7.314000	1.559424
7.315000	1.530758
7.316000	1.529791
7.317000	1.548473
7.318000	1.598720
7.319000	1.651221
7.320000	1.738831
7.321000	1.779737
7.322000	1.750748
7.323000	1.679243
7.324000	1.608383
7.325000	1.557814
7.326000	1.536233
7.327000	1.466661
7.328000	1.430908
7.329000	1.437028
7.330000	1.488563
7.331000	1.520773
7.332000	1.528503
7.333000	1.562001
7.334000	1.593244
7.335000	1.572308
7.336000	1.578428
7.337000	1.583259
7.338000	1.575529
7.339000	1.571342
7.340000	1.573918
7.341000	1.572952
7.342000	1.560713
7.343000	1.537200
7.344000	1.524638
7.345000	1.507245
7.346000	1.519807
7.347000	1.544930
7.348000	1.585192
7.349000	1.643813
7.350000	1.713385
7.351000	1.763954
7.352000	1.819999
7.353000	1.855429
7.354000	1.835137
7.355000	1.739475
7.356000	1.599686
7.357000	1.493395
7.358000	1.416736
7.359000	1.395156
7.360000	1.409328
7.361000	1.473425
7.362000	1.560713
7.363000	1.590989
7.364000	1.582615
7.365000	1.564578
7.366000	1.555559
7.367000	1.542997
7.368000	1.500481
7.369000	1.448624
7.370000	1.424144
7.371000	1.407073
7.372000	1.433807
7.373000	1.500159
7.374000	1.555881
7.375000	1.541709
7.376000	1.520451
7.377000	1.517874
7.378000	1.533657
7.379000	1.582937
7.380000	1.588413
7.381000	1.608060
7.382000	1.626098
7.383000	1.638981
7.384000	1.666037
7.385000	1.687618
7.386000	1.668614
7.387000	1.599364
7.388000	1.539454
7.389000	1.499192
7.390000	1.461830
7.391000	1.427688
7.392000	1.456032
7.393000	1.502091
7.394000	1.590667
7.395000	1.677311
7.396000	1.685685
7.397000	1.664427
7.398000	1.657019
7.399000	1.645101
7.400000	1.602907
7.401000	1.579072
7.402000	1.588091
7.403000	1.610315
7.404000	1.595499
7.405000	1.589057
7.406000	1.602263
7.407000	1.585836
7.408000	1.579394
7.409000	1.581649
7.410000	1.598720
7.411000	1.621910
7.412000	1.629963
7.413000	1.614824
7.414000	1.607416
7.415000	1.589379
7.416000	1.508855
7.417000	1.448302
7.418000	1.419313
7.419000	1.448946
7.420000	1.526571
7.421000	1.627064
7.422000	1.733677
7.423000	1.747849
7.424000	1.732711
7.425000	1.741408
7.426000	1.734321
7.427000	1.687940
7.428000	1.622233
7.429000	1.543642
7.430000	1.466339
7.431000	1.405141
7.432000	1.353284
7.433000	1.331059
7.434000	1.361658
7.435000	1.418991
7.436000	1.523994
7.437000	1.583581
7.438000	1.596143
7.439000	1.623843
7.440000	1.597753
7.441000	1.523672
7.442000	1.455388
7.443000	1.399665
7.444000	1.369066
7.445000	1.393545
7.446000	1.468593
7.447000	1.527859
7.448000	1.605484
7.449000	1.647356
7.450000	1.659596
7.451000	1.685363
7.452000	1.715962
7.453000	1.742052
7.454000	1.744306
7.455000	1.728524
7.456000	1.717573
7.457000	1.639304
7.458000	1.540743
7.459000	1.484698
7.460000	1.444436
7.461000	1.426399
7.462000	1.458931
7.463000	1.489208
7.464000	1.481155
7.465000	1.510788
7.466000	1.549761
7.467000	1.548151
7.468000	1.528825
7.469000	1.530114
7.470000	1.514331
7.471000	1.524316
7.472000	1.524638
7.473000	1.547185
7.474000	1.567799
7.475000	1.601296
7.476000	1.634794
7.477000	1.619012
7.478000	1.589057
7.479000	1.551694
7.480000	1.533979
7.481000	1.574885
7.482000	1.614502
7.483000	1.632540
7.484000	1.617401
7.485000	1.581327
7.486000	1.552338
7.487000	1.561357
7.488000	1.601941
7.489000	1.656053
7.490000	1.691805
7.491000	1.710809
7.492000	1.715640
7.493000	1.723692
7.494000	1.715640
7.495000	1.710486
7.496000	1.674734
7.497000	1.619656
7.498000	1.588413
7.499000	1.589057
7.500000	1.602263
7.501000	1.604195
7.502000	1.608383
7.503000	1.590989
7.504000	1.571664
7.505000	1.553626
7.506000	1.506279
7.507000	1.489530
7.508000	1.518196
7.509000	1.544930
7.510000	1.536233
7.511000	1.506279
7.512000	1.492106
7.513000	1.533657
7.514000	1.582615
7.515000	1.580682
7.516000	1.595499
7.517000	1.594210
7.518000	1.562967
7.519000	1.522705
7.520000	1.501769
7.521000	1.532690
7.522000	1.581327
7.523000	1.637693
7.524000	1.632540
7.525000	1.571020
7.526000	1.529791
7.527000	1.463118
7.528000	1.390969
7.529000	1.393868
7.530000	1.422856
7.531000	1.456354
7.532000	1.523994
7.533000	1.571342
7.534000	1.585514
7.535000	1.574885
7.536000	1.534623
7.537000	1.467949
7.538000	1.415126
7.539000	1.384527
7.540000	1.382916
7.541000	1.443470
7.542000	1.523350
7.543000	1.585514
7.544000	1.628997
7.545000	1.651543
7.546000	1.665393
7.547000	1.655086
7.548000	1.623843
7.549000	1.600652
7.550000	1.585514
7.551000	1.586158
7.552000	1.582293
7.553000	1.597109
7.554000	1.609349
7.555000	1.600974
7.556000	1.591634
7.557000	1.625131
7.558000	1.659273
7.559000	1.675056
7.560000	1.650577
7.561000	1.630607
7.562000	1.588091
7.563000	1.547185
7.564000	1.526571
7.565000	1.540421
7.566000	1.494039
7.567000	1.466661
7.568000	1.443148
7.569000	1.450878
7.570000	1.522061
7.571000	1.598075
7.572000	1.668614
7.573000	1.702112
7.574000	1.704045
7.575000	1.710809
7.576000	1.701790
7.577000	1.639304
7.578000	1.560713
7.579000	1.503058
7.580000	1.493717
7.581000	1.518196
7.582000	1.549761
7.583000	1.583581
7.584000	1.629641
7.585000	1.661850
7.586000	1.657341
7.587000	1.633828
7.588000	1.615469
7.589000	1.577139
7.590000	1.520773
7.591000	1.495005
7.592000	1.506601
7.593000	1.504668
7.594000	1.481477
7.595000	1.465050
7.596000	1.460863
7.597000	1.471814
7.598000	1.479545
7.599000	1.493395
7.600000	1.533979
7.601000	1.541709
7.602000	1.617079
7.603000	1.729812
7.604000	1.804860
7.605000	1.839002
7.606000	1.833205
7.607000	1.753969
7.608000	1.639948
7.609000	1.544608
7.610000	1.474713
7.611000	1.487919
7.612000	1.495649
7.613000	1.491784
7.614000	1.515619
7.615000	1.533657
7.616000	1.545896
7.617000	1.553626
7.618000	1.564900
7.619000	1.603873
7.620000	1.632540
7.621000	1.625776
7.622000	1.581649
7.623000	1.540421
7.624000	1.531402
7.625000	1.530758
7.626000	1.551372
7.627000	1.570053
7.628000	1.572952
7.629000	1.505634
7.630000	1.442504
7.631000	1.433163
7.632000	1.413837
7.633000	1.412227
7.634000	1.418347
7.635000	1.452489
7.636000	1.511754
7.637000	1.564256
7.638000	1.584548
7.639000	1.571342
7.640000	1.538488
7.641000	1.544608
7.642000	1.617079
7.643000	1.708554
7.644000	1.732711
7.645000	1.685041
7.646000	1.609027
7.647000	1.568121
7.648000	1.560068
7.649000	1.549439
7.650000	1.532690
7.651000	1.510788
7.652000	1.504346
7.653000	1.503702
7.654000	1.517874
7.655000	1.535267
7.656000	1.535589
7.657000	1.539776
7.658000	1.561035
7.659000	1.588735
7.660000	1.593244
7.661000	1.600652
7.662000	1.619334
7.663000	1.640592
7.664000	1.665071
7.665000	1.680532
7.666000	1.676344
7.667000	1.667326
7.668000	1.621910
7.669000	1.582937
7.670000	1.562967
7.671000	1.570697
7.672000	1.583581
7.673000	1.576817
7.674000	1.552016
7.675000	1.504024
7.676000	1.464728
7.677000	1.442182
7.678000	1.427043
7.679000	1.435096
7.680000	1.510788
7.681000	1.595499
7.682000	1.671835
7.683000	1.733677
7.684000	1.788755
7.685000	1.813235
7.686000	1.780703
7.687000	1.715640
7.688000	1.632540
7.689000	1.575851
7.690000	1.551372
7.691000	1.549439
7.692000	1.487919
7.693000	1.446691
7.694000	1.421246
7.695000	1.431553
7.696000	1.440249
7.697000	1.492428
7.698000	1.581327
7.699000	1.651543
7.700000	1.698247
7.701000	1.703078
7.702000	1.668292
7.703000	1.611603
7.704000	1.533657
7.705000	1.466983
7.706000	1.414482
7.707000	1.377763
7.708000	1.376797
7.709000	1.397733
7.710000	1.447657
7.711000	1.522705
7.712000	1.616113
7.713000	1.639304
7.714000	1.610315
7.715000	1.560390
7.716000	1.517230
7.717000	1.493073
7.718000	1.475680
7.719000	1.485342
7.720000	1.538810
7.721000	1.599042
7.722000	1.608060
7.723000	1.623843
7.724000	1.661850
7.725000	1.698891
7.726000	1.720149
7.727000	1.718539
7.728000	1.695670
7.729000	1.674734
7.730000	1.642202
7.731000	1.615147
7.732000	1.546218
7.733000	1.469560
7.734000	1.434451
7.735000	1.446047
7.736000	1.477612
7.737000	1.507245
7.738000	1.534301
7.739000	1.579072
7.740000	1.610315
7.741000	1.641880
7.742000	1.662816
7.743000	1.667648
7.744000	1.648322
7.745000	1.646390
7.746000	1.636083
7.747000	1.613858
7.748000	1.584870
7.749000	1.552982
7.750000	1.545896
7.751000	1.550083
7.752000	1.555881
7.753000	1.559102
7.754000	1.556847
7.755000	1.549117
7.756000	1.552016
7.757000	1.541387
7.758000	1.529469
7.759000	1.495005
7.760000	1.489530
7.761000	1.490496
7.762000	1.476002
7.763000	1.485987
7.764000	1.529469
7.765000	1.569731
7.766000	1.597109
7.767000	1.606450
7.768000	1.620622
7.769000	1.618690
7.770000	1.588413
7.771000	1.564256
7.772000	1.545574
7.773000	1.545896
7.774000	1.569731
7.775000	1.599686
7.776000	1.609993
7.777000	1.605484
7.778000	1.567477
7.779000	1.523027
7.780000	1.503702
7.781000	1.473747
7.782000	1.433807
7.783000	1.410294
7.784000	1.432841
7.785000	1.476002
7.786000	1.523994
7.787000	1.610315
7.788000	1.631895
7.789000	1.611603
7.790000	1.617723
7.791000	1.600652
7.792000	1.577461
7.793000	1.598720
7.794000	1.618367
7.795000	1.629963
7.796000	1.634150
7.797000	1.638015
7.798000	1.628997
7.799000	1.636083
7.800000	1.629641
7.801000	1.598720
7.802000	1.609349
7.803000	1.694060
7.804000	1.764920
7.805000	1.820965
7.806000	1.790688
7.807000	1.721760
7.808000	1.686329
7.809000	1.644457
7.810000	1.636727
7.811000	1.615469
7.812000	1.547185
7.813000	1.497904
7.814000	1.489208
7.815000	1.498226
7.816000	1.496294
7.817000	1.475357
7.818000	1.459575
7.819000	1.481477
7.820000	1.469560
7.821000	1.437028
7.822000	1.399987
7.823000	1.351995
7.824000	1.365845
7.825000	1.412549
7.826000	1.479223
7.827000	1.542353
7.828000	1.594532
7.829000	1.633184
7.830000	1.618690
7.831000	1.609993
7.832000	1.607738
7.833000	1.621588
7.834000	1.626420
7.835000	1.597431
7.836000	1.557814
7.837000	1.560068
7.838000	1.595177
7.839000	1.628030
7.840000	1.591956
7.841000	1.522705
7.842000	1.515619
7.843000	1.522705
7.844000	1.499192
7.845000	1.506279
7.846000	1.526893
7.847000	1.573274
7.848000	1.612248
7.849000	1.623199
7.850000	1.627386
7.851000	1.622877
7.852000	1.602263
7.853000	1.582293
7.854000	1.578428
7.855000	1.587768
7.856000	1.581327
7.857000	1.527215
7.858000	1.435096
7.859000	1.371965
7.860000	1.364879
7.861000	1.409328
7.862000	1.437672
7.863000	1.537522
7.864000	1.624165
7.865000	1.669580
7.866000	1.689872
7.867000	1.703400
7.868000	1.714352
7.869000	1.708232
7.870000	1.681820
7.871000	1.676667
7.872000	1.668936
7.873000	1.658629
7.874000	1.648644
7.875000	1.636083
7.876000	1.608383
7.877000	1.553304
7.878000	1.510466
7.879000	1.468916
7.880000	1.475035
7.881000	1.484054
7.882000	1.488241
7.883000	1.479867
7.884000	1.474069
7.885000	1.474391
7.886000	1.484054
7.887000	1.514653
7.888000	1.559746
7.889000	1.581971
7.890000	1.575207
7.891000	1.574240
7.892000	1.603229
7.893000	1.624809
7.894000	1.592278
7.895000	1.595177
7.896000	1.618045
7.897000	1.649933
7.898000	1.675700
7.899000	1.672479
7.900000	1.667970
7.901000	1.669258
7.902000	1.663461
7.903000	1.650899
7.904000	1.625131
7.905000	1.615147
7.906000	1.575207
7.907000	1.542675
7.908000	1.515619
7.909000	1.473747
7.910000	1.422856
7.911000	1.380340
7.912000	1.345231
7.913000	1.337501
7.914000	1.389680
7.915000	1.462796
7.916000	1.529791
7.917000	1.580682
7.918000	1.574240
7.919000	1.554593
7.920000	1.550728
7.921000	1.575207
7.922000	1.599042
7.923000	1.610315
7.924000	1.628030
7.925000	1.644457
7.926000	1.644779
7.927000	1.654120
7.928000	1.672479
7.929000	1.679888
7.930000	1.632862
7.931000	1.583581
7.932000	1.623843
7.933000	1.696314
7.934000	1.748816
7.935000	1.760733
7.936000	1.702434
7.937000	1.604517
7.938000	1.511432
7.939000	1.428976
7.940000	1.413193
7.941000	1.426399
7.942000	1.490496
7.943000	1.502736
7.944000	1.479545
7.945000	1.454421
7.946000	1.472137
7.947000	1.534301
7.948000	1.591312
7.949000	1.587124
7.950000	1.584225
7.951000	1.587768
7.952000	1.602907
7.953000	1.611281
7.954000	1.573274
7.955000	1.528825
7.956000	1.489852
7.957000	1.474713
7.958000	1.529469
7.959000	1.563289
7.960000	1.574885
7.961000	1.590989
7.962000	1.601296
7.963000	1.601296
7.964000	1.590989
7.965000	1.600974
7.966000	1.640914
7.967000	1.667004
7.968000	1.674412
7.969000	1.662816
7.970000	1.618367
7.971000	1.560390
7.972000	1.521095
7.973000	1.501769
7.974000	1.503702
7.975000	1.518196
7.976000	1.542997
7.977000	1.594855
7.978000	1.657985
7.979000	1.698247
7.980000	1.683431
7.981000	1.617723
7.982000	1.542031
7.983000	1.489852
7.984000	1.456032
7.985000	1.439605
7.986000	1.440571
7.987000	1.457320
7.988000	1.479545
7.989000	1.526893
7.990000	1.568121
7.991000	1.649933
7.992000	1.753325
7.993000	1.784568
7.994000	1.755902
7.995000	1.690517
7.996000	1.578106
7.997000	1.485020
7.998000	1.488885
7.999000	1.515941
8.000000	1.539776
8.001000	1.588091
8.002000	1.599686
8.003000	1.588735
8.004000	1.571664
8.005000	1.547829
8.006000	1.512398
8.007000	1.475035
8.008000	1.464728
8.009000	1.449590
8.010000	1.435740
8.011000	1.457964
8.012000	1.498870
8.013000	1.566188
8.014000	1.615147
8.015000	1.614824
8.016000	1.584548
8.017000	1.529147
8.018000	1.471814
8.019000	1.423178
8.020000	1.387104
8.021000	1.399343
8.022000	1.477934
8.023000	1.606772
8.024000	1.690195
8.025000	1.726269
8.026000	1.716284
8.027000	1.669258
8.028000	1.638659
8.029000	1.603229
8.030000	1.609671
8.031000	1.616113
8.032000	1.616113
8.033000	1.574240
8.034000	1.508533
8.035000	1.454743
8.036000	1.455388
8.037000	1.493395
8.038000	1.508211
8.039000	1.554593
8.040000	1.644135
8.041000	1.694060
8.042000	1.688262
8.043000	1.655086
8.044000	1.616435
8.045000	1.580038
8.046000	1.554915
8.047000	1.595821
8.048000	1.629641
8.049000	1.651221
8.050000	1.633184
8.051000	1.599686
8.052000	1.596787
8.053000	1.587124
8.054000	1.596143
8.055000	1.612570
8.056000	1.632540
8.057000	1.644135
8.058000	1.650577
8.059000	1.649933
8.060000	1.632218
8.061000	1.600652
8.062000	1.535911
8.063000	1.484054
8.064000	1.434774
8.065000	1.421890
8.066000	1.474391
8.067000	1.540098
8.068000	1.612248
8.069000	1.669903
8.070000	1.630607
8.071000	1.589701
8.072000	1.568765
8.073000	1.554593
8.074000	1.518518
8.075000	1.495005
8.076000	1.475357
8.077000	1.495649
8.078000	1.530758
8.079000	1.576817
8.080000	1.612248
8.081000	1.608060
8.082000	1.619656
8.083000	1.622877
8.084000	1.588091
8.085000	1.517552
8.086000	1.476002
8.087000	1.470526
8.088000	1.487597
8.089000	1.506279
8.090000	1.526571
8.091000	1.533979
8.092000	1.562967
8.093000	1.563289
8.094000	1.549761
8.095000	1.533334
8.096000	1.540421
8.097000	1.538810
8.098000	1.542031
8.099000	1.540743
8.100000	1.529791
8.101000	1.523672
8.102000	1.512398
8.103000	1.497904
8.104000	1.471170
8.105000	1.498870
8.106000	1.555881
8.107000	1.576817
8.108000	1.612892
8.109000	1.681498
8.110000	1.715962
8.111000	1.725303
8.112000	1.722404
8.113000	1.716284
8.114000	1.672157
8.115000	1.625131
8.116000	1.575207
8.117000	1.516586
8.118000	1.455066
8.119000	1.449912
8.120000	1.446047
8.121000	1.464728
8.122000	1.587124
8.123000	1.682142
8.124000	1.712419
8.125000	1.667970
8.126000	1.595499
8.127000	1.549761
8.128000	1.512076
8.129000	1.468271
8.130000	1.464084
8.131000	1.514009
8.132000	1.563289
8.133000	1.589701
8.134000	1.572952
8.135000	1.556203
8.136000	1.524316
8.137000	1.531724
8.138000	1.550083
8.139000	1.564578
8.140000	1.563611
8.141000	1.574885
8.142000	1.577139
8.143000	1.579716
8.144000	1.584225
8.145000	1.586802
8.146000	1.591312
8.147000	1.606450
8.148000	1.617723
8.149000	1.624165
8.150000	1.681498
8.151000	1.738509
8.152000	1.746239
8.153000	1.734966
8.154000	1.716284
8.155000	1.682464
8.156000	1.623843
8.157000	1.546862
8.158000	1.474713
8.159000	1.408362
8.160000	1.405141
8.161000	1.403853
8.162000	1.441215
8.163000	1.476968
8.164000	1.497904
8.165000	1.494039
8.166000	1.473103
8.167000	1.482444
8.168000	1.509822
8.169000	1.545896
8.170000	1.574563
8.171000	1.577139
8.172000	1.574885
8.173000	1.584870
8.174000	1.592278
8.175000	1.583581
8.176000	1.551694
8.177000	1.523027
8.178000	1.494039
8.179000	1.468593
8.180000	1.532690
8.181000	1.619978
8.182000	1.661206
8.183000	1.700179
8.184000	1.700824
8.185000	1.652832
8.186000	1.602585
8.187000	1.567799
8.188000	1.552660
8.189000	1.629319
8.190000	1.706621
8.191000	1.726591
8.192000	1.708876
8.193000	1.661206
8.194000	1.583581
8.195000	1.505634
8.196000	1.438639
8.197000	1.433163
8.198000	1.431553
8.199000	1.408684
8.200000	1.398377
8.201000	1.415770
8.202000	1.467627
8.203000	1.549117
8.204000	1.619334
8.205000	1.659596
8.206000	1.670547
8.207000	1.652832
8.208000	1.632540
8.209000	1.628997
8.210000	1.612892
8.211000	1.574563
8.212000	1.503702
8.213000	1.459253
8.214000	1.468271
8.215000	1.460863
8.216000	1.479223
8.217000	1.513365
8.218000	1.545574
8.219000	1.568121
8.220000	1.567154
8.221000	1.561679
8.222000	1.542031
8.223000	1.552016
8.224000	1.577784
8.225000	1.573918
8.226000	1.601619
8.227000	1.655730
8.228000	1.674090
8.229000	1.680532
8.230000	1.685685
8.231000	1.668936
8.232000	1.625131
8.233000	1.578428
8.234000	1.543642
8.235000	1.512076
8.236000	1.518196
8.237000	1.554915
8.238000	1.568765
8.239000	1.592278
8.240000	1.599364
8.241000	1.567154
8.242000	1.540098
8.243000	1.522383
8.244000	1.545896
8.245000	1.603229
8.246000	1.660884
8.247000	1.703400
8.248000	1.712097
8.249000	1.699857
8.250000	1.697603
8.251000	1.679565
8.252000	1.679243
8.253000	1.655408
8.254000	1.642202
8.255000	1.608383
8.256000	1.545252
8.257000	1.460863
8.258000	1.433163
8.259000	1.411583
8.260000	1.395156
8.261000	1.425111
8.262000	1.458931
8.263000	1.502091
8.264000	1.523672
8.265000	1.513687
8.266000	1.511432
8.267000	1.509499
8.268000	1.493395
8.269000	1.484698
8.270000	1.487597
8.271000	1.475035
8.272000	1.451522
8.273000	1.455710
8.274000	1.466339
8.275000	1.450556
8.276000	1.450878
8.277000	1.516908
8.278000	1.590989
8.279000	1.627708
8.280000	1.638337
8.281000	1.625776
8.282000	1.602263
8.283000	1.586480
8.284000	1.578750
8.285000	1.569731
8.286000	1.590989
8.287000	1.662172
8.288000	1.732389
8.289000	1.743340
8.290000	1.731423
8.291000	1.707266
8.292000	1.638659
8.293000	1.566832
8.294000	1.512076
8.295000	1.501125
8.296000	1.469560
8.297000	1.448302
8.298000	1.446691
8.299000	1.447979
8.300000	1.473425
8.301000	1.500159
8.302000	1.523350
8.303000	1.545896
8.304000	1.569087
8.305000	1.585836
8.306000	1.608383
8.307000	1.609993
8.308000	1.609349
8.309000	1.599364
8.310000	1.572952
8.311000	1.589701
8.312000	1.676344
8.313000	1.762022
8.314000	1.757512
8.315000	1.688584
8.316000	1.625776
8.317000	1.580682
8.318000	1.521417
8.319000	1.485342
8.320000	1.481155
8.321000	1.514009
8.322000	1.566510
8.323000	1.650577
8.324000	1.718217
8.325000	1.753325
8.326000	1.755902
8.327000	1.717573
8.328000	1.660562
8.329000	1.577139
8.330000	1.479545
8.331000	1.427688
8.332000	1.410294
8.333000	1.433163
8.334000	1.467305
8.335000	1.496616
8.336000	1.543642
8.337000	1.582293
8.338000	1.594210
8.339000	1.594210
8.340000	1.589057
8.341000	1.595821
8.342000	1.609027
8.343000	1.608705
8.344000	1.604517
8.345000	1.564900
8.346000	1.575851
8.347000	1.627064
8.348000	1.606772
8.349000	1.584548
8.350000	1.553626
8.351000	1.553304
8.352000	1.553626
8.353000	1.540421
8.354000	1.497582
8.355000	1.470848
8.356000	1.487275
8.357000	1.503702
8.358000	1.513043
8.359000	1.536555
8.360000	1.559746
8.361000	1.542675
8.362000	1.504990
8.363000	1.452167
8.364000	1.438317
8.365000	1.440893
8.366000	1.465050
8.367000	1.518196
8.368000	1.623199
8.369000	1.672801
8.370000	1.672479
8.371000	1.674734
8.372000	1.659273
8.373000	1.633828
8.374000	1.589701
8.375000	1.550728
8.376000	1.531724
8.377000	1.547829
8.378000	1.585836
8.379000	1.640592
8.380000	1.655086
8.381000	1.649289
8.382000	1.619656
8.383000	1.564900
8.384000	1.516263
8.385000	1.493395
8.386000	1.490496
8.387000	1.518196
8.388000	1.556525
8.389000	1.573918
8.390000	1.616435
8.391000	1.657985
8.392000	1.661850
8.393000	1.622233
8.394000	1.597753
8.395000	1.563289
8.396000	1.531724
8.397000	1.485020
8.398000	1.472781
8.399000	1.463762
8.400000	1.467949
8.401000	1.487275
8.402000	1.488241
8.403000	1.486953
8.404000	1.504668
8.405000	1.535911
8.406000	1.595177
8.407000	1.687618
8.408000	1.772651
8.409000	1.800995
8.410000	1.731101
8.411000	1.639948
8.412000	1.554915
8.413000	1.487275
8.414000	1.476646
8.415000	1.448302
8.416000	1.433163
8.417000	1.475357
8.418000	1.539132
8.419000	1.588091
8.420000	1.625454
8.421000	1.644135
8.422000	1.625454
8.423000	1.581004
8.424000	1.552016
8.425000	1.532368
8.426000	1.517874
8.427000	1.539132
8.428000	1.565544
8.429000	1.594855
8.430000	1.617401
8.431000	1.618690
8.432000	1.614824
8.433000	1.598720
8.434000	1.642202
8.435000	1.685685
8.436000	1.676989
8.437000	1.640270
8.438000	1.614824
8.439000	1.622877
8.440000	1.629963
8.441000	1.628674
8.442000	1.648644
8.443000	1.648322
8.444000	1.606450
8.445000	1.542031
8.446000	1.508533
8.447000	1.508211
8.448000	1.485987
8.449000	1.447657
8.450000	1.440571
8.451000	1.518840
8.452000	1.537522
8.453000	1.561035
8.454000	1.564900
8.455000	1.510144
8.456000	1.447657
8.457000	1.382272
8.458000	1.345876
8.459000	1.374864
8.460000	1.461507
8.461000	1.542353
8.462000	1.567477
8.463000	1.559102
8.464000	1.545252
8.465000	1.556203
8.466000	1.581971
8.467000	1.631251
8.468000	1.646712
8.469000	1.636083
8.470000	1.635438
8.471000	1.628030
8.472000	1.655408
8.473000	1.655086
8.474000	1.635438
8.475000	1.616757
8.476000	1.609027
8.477000	1.544608
8.478000	1.449268
8.479000	1.357149
8.480000	1.294340
8.481000	1.275981
8.482000	1.325906
8.483000	1.451200
8.484000	1.604517
8.485000	1.720471
8.486000	1.759445
8.487000	1.750748
8.488000	1.726913
8.489000	1.684075
8.490000	1.660240
8.491000	1.662816
8.492000	1.652187
8.493000	1.647356
8.494000	1.633184
8.495000	1.594855
8.496000	1.551694
8.497000	1.543642
8.498000	1.492428
8.499000	1.496938
8.500000	1.531402
8.501000	1.563611
8.502000	1.590023
8.503000	1.579072
8.504000	1.575851
8.505000	1.525926
8.506000	1.462796
8.507000	1.428010
8.508000	1.469238
8.509000	1.542997
8.510000	1.601296
8.511000	1.632218
8.512000	1.625454
8.513000	1.607094
8.514000	1.592278
8.515000	1.593888
8.516000	1.626420
8.517000	1.652187
8.518000	1.693738
8.519000	1.726591
8.520000	1.755258
8.521000	1.754936
8.522000	1.683431
8.523000	1.562645
8.524000	1.423178
8.525000	1.351995
8.526000	1.349419
8.527000	1.394834
8.528000	1.456676
8.529000	1.557169
8.530000	1.642847
8.531000	1.678277
8.532000	1.663461
8.533000	1.623843
8.534000	1.628352
8.535000	1.647678
8.536000	1.702434
8.537000	1.789078
8.538000	1.816778
8.539000	1.761055
8.540000	1.676667
8.541000	1.589379
8.542000	1.521095
8.543000	1.451200
8.544000	1.400309
8.545000	1.416414
8.546000	1.455710
8.547000	1.469882
8.548000	1.471492
8.549000	1.469882
8.550000	1.474713
8.551000	1.485020
8.552000	1.464728
8.553000	1.439927
8.554000	1.417058
8.555000	1.433485
8.556000	1.456676
8.557000	1.497260
8.558000	1.552660
8.559000	1.608060
8.560000	1.647678
8.561000	1.693093
8.562000	1.629319
8.563000	1.559102
8.564000	1.558458
8.565000	1.600330
8.566000	1.623521
8.567000	1.580360
8.568000	1.551372
8.569000	1.551372
8.570000	1.546862
8.571000	1.536878
8.572000	1.512076
8.573000	1.508211
8.574000	1.482766
8.575000	1.484698
8.576000	1.500803
8.577000	1.565866
8.578000	1.663139
8.579000	1.680532
8.580000	1.648322
8.581000	1.609027
8.582000	1.580038
8.583000	1.532046
8.584000	1.504668
8.585000	1.476968
8.586000	1.493717
8.587000	1.548151
8.588000	1.620300
8.589000	1.672157
8.590000	1.714674
8.591000	1.711453
8.592000	1.682142
8.593000	1.644457
8.594000	1.619334
8.595000	1.600330
8.596000	1.525282
8.597000	1.480833
8.598000	1.525282
8.599000	1.542675
8.600000	1.565544
8.601000	1.640270
8.602000	1.755902
8.603000	1.889571
8.604000	1.942073
8.605000	1.885384
8.606000	1.784568
8.607000	1.620944
8.608000	1.427688
8.609000	1.297883
8.610000	1.267607
8.611000	1.308190
8.612000	1.347164
8.613000	1.363913
8.614000	1.385815
8.615000	1.418669
8.616000	1.444759
8.617000	1.488241
8.618000	1.520451
8.619000	1.526571
8.620000	1.543964
8.621000	1.562967
8.622000	1.615791
8.623000	1.696959
8.624000	1.721760
8.625000	1.686974
8.626000	1.655730
8.627000	1.637049
8.628000	1.622233
8.629000	1.568443
8.630000	1.519484
8.631000	1.529469
8.632000	1.553949
8.633000	1.569087
8.634000	1.577784
8.635000	1.567477
8.636000	1.574240
8.637000	1.566510
8.638000	1.539454
8.639000	1.495005
8.640000	1.497260
8.641000	1.499515
8.642000	1.523994
8.643000	1.538810
8.644000	1.546540
8.645000	1.524960
8.646000	1.503058
8.647000	1.503702
8.648000	1.571664
8.649000	1.617079
8.650000	1.600330
8.651000	1.556525
8.652000	1.537844
8.653000	1.557814
8.654000	1.613858
8.655000	1.686007
8.656000	1.726913
8.657000	1.737220
8.658000	1.724014
8.659000	1.677311
8.660000	1.590667
8.661000	1.515297
8.662000	1.456354
8.663000	1.404497
8.664000	1.423178
8.665000	1.478578
8.666000	1.553626
8.667000	1.628997
8.668000	1.662494
8.669000	1.651865
8.670000	1.608705
8.671000	1.587124
8.672000	1.573918
8.673000	1.583903
8.674000	1.615791
8.675000	1.620944
8.676000	1.605162
8.677000	1.552016
8.678000	1.513687
8.679000	1.499192
8.680000	1.516263
8.681000	1.563933
8.682000	1.649611
8.683000	1.736898
8.684000	1.772651
8.685000	1.735932
8.686000	1.653476
8.687000	1.559424
8.688000	1.448302
8.689000	1.389036
8.690000	1.374542
8.691000	1.383883
8.692000	1.407396
8.693000	1.482121
8.694000	1.562645
8.695000	1.565544
8.696000	1.580360
8.697000	1.610315
8.698000	1.592278
8.699000	1.585836
8.700000	1.571342
8.701000	1.561679
8.702000	1.549439
8.703000	1.588091
8.704000	1.631573
8.705000	1.656375
8.706000	1.660884
8.707000	1.650255
8.708000	1.613858
8.709000	1.560068
8.710000	1.524638
8.711000	1.502091
8.712000	1.477290
8.713000	1.453455
8.714000	1.430908
8.715000	1.418991
8.716000	1.446691
8.717000	1.511754
8.718000	1.618690
8.719000	1.676989
8.720000	1.655408
8.721000	1.596787
8.722000	1.561357
8.723000	1.528503
8.724000	1.510144
8.725000	1.517230
8.726000	1.523994
8.727000	1.544930
8.728000	1.573596
8.729000	1.604839
8.730000	1.594532
8.731000	1.570697
8.732000	1.557169
8.733000	1.595821
8.734000	1.721116
8.735000	1.781347
8.736000	1.756868
8.737000	1.700824
8.738000	1.656697
8.739000	1.626098
8.740000	1.566832
8.741000	1.517552
8.742000	1.503380
8.743000	1.514009
8.744000	1.553626
8.745000	1.609027
8.746000	1.667648
8.747000	1.639304
8.748000	1.543964
8.749000	1.474069
8.750000	1.445403
8.751000	1.500159
8.752000	1.541709
8.753000	1.524638
8.754000	1.528503
8.755000	1.550406
8.756000	1.554271
8.757000	1.516263
8.758000	1.466661
8.759000	1.482766
8.760000	1.497582
8.761000	1.525926
8.762000	1.554915
8.763000	1.588413
8.764000	1.634150
8.765000	1.649933
8.766000	1.643491
8.767000	1.621588
8.768000	1.579716
8.769000	1.547829
8.770000	1.535911
8.771000	1.563933
8.772000	1.590989
8.773000	1.648644
8.774000	1.656375
8.775000	1.643813
8.776000	1.586802
8.777000	1.541387
8.778000	1.484698
8.779000	1.400954
8.780000	1.399343
8.781000	1.444759
8.782000	1.462474
8.783000	1.489852
8.784000	1.513687
8.785000	1.534945
8.786000	1.564256
8.787000	1.604517
8.788000	1.682786
8.789000	1.762988
8.790000	1.767497
8.791000	1.686974
8.792000	1.650577
8.793000	1.665393
8.794000	1.679888
8.795000	1.644779
8.796000	1.592600
8.797000	1.567154
8.798000	1.503380
8.799000	1.455388
8.800000	1.450234
8.801000	1.454743
8.802000	1.492751
8.803000	1.574563
8.804000	1.655730
8.805000	1.698569
8.806000	1.701146
8.807000	1.665393
8.808000	1.636083
8.809000	1.603229
8.810000	1.561679
8.811000	1.491462
8.812000	1.452167
8.813000	1.418669
8.814000	1.438317
8.815000	1.509499
8.816000	1.542675
8.817000	1.552982
8.818000	1.592600
8.819000	1.589057
8.820000	1.569731
8.821000	1.551694
8.822000	1.546218
8.823000	1.545896
8.824000	1.557169
8.825000	1.562323
8.826000	1.551694
8.827000	1.524316
8.828000	1.525604
8.829000	1.539454
8.830000	1.532690
8.831000	1.528181
8.832000	1.521739
8.833000	1.496938
8.834000	1.492751
8.835000	1.561035
8.836000	1.615791
8.837000	1.640592
8.838000	1.629963
8.839000	1.598720
8.840000	1.587768
8.841000	1.542997
8.842000	1.503058
8.843000	1.519807
8.844000	1.544930
8.845000	1.561679
8.846000	1.578750
8.847000	1.629963
8.848000	1.648644
8.849000	1.647356
8.850000	1.618690
8.851000	1.590345
8.852000	1.593566
8.853000	1.566188
8.854000	1.529791
8.855000	1.503702
8.856000	1.495649
8.857000	1.520129
8.858000	1.558136
8.859000	1.582615
8.860000	1.593888
8.861000	1.578428
8.862000	1.606772
8.863000	1.685685
8.864000	1.769108
8.865000	1.779093
8.866000	1.749138
8.867000	1.719505
8.868000	1.694382
8.869000	1.643491
8.870000	1.603551
8.871000	1.532368
8.872000	1.506279
8.873000	1.524316
8.874000	1.577139
8.875000	1.613214
8.876000	1.596143
8.877000	1.562645
8.878000	1.513365
8.879000	1.459253
8.880000	1.414160
8.881000	1.386137
8.882000	1.371965
8.883000	1.439605
8.884000	1.530436
8.885000	1.580360
8.886000	1.617401
8.887000	1.616435
8.888000	1.613858
8.889000	1.621266
8.890000	1.588735
8.891000	1.541709
8.892000	1.489208
8.893000	1.434774
8.894000	1.420279
8.895000	1.434129
8.896000	1.449268
8.897000	1.539132
8.898000	1.625131
8.899000	1.667326
8.900000	1.664749
8.901000	1.671513
8.902000	1.695992
8.903000	1.719505
8.904000	1.716284
8.905000	1.649611
8.906000	1.602907
8.907000	1.581004
8.908000	1.534301
8.909000	1.497582
8.910000	1.504024
8.911000	1.539454
8.912000	1.444114
8.913000	1.380662
8.914000	1.362624
8.915000	1.379051
8.916000	1.400632
8.917000	1.486953
8.918000	1.584548
8.919000	1.622877
8.920000	1.640592
8.921000	1.648644
8.922000	1.672479
8.923000	1.707266
8.924000	1.736576
8.925000	1.737220
8.926000	1.701468
8.927000	1.682142
8.928000	1.690195
8.929000	1.656053
8.930000	1.658951
8.931000	1.656053
8.932000	1.662494
8.933000	1.676989
8.934000	1.652832
8.935000	1.628674
8.936000	1.605484
8.937000	1.558458
8.938000	1.524960
8.939000	1.512076
8.940000	1.506279
8.941000	1.500803
8.942000	1.481477
8.943000	1.451200
8.944000	1.434451
8.945000	1.428010
8.946000	1.445725
8.947000	1.495972
8.948000	1.538810
8.949000	1.564256
8.950000	1.563289
8.951000	1.548151
8.952000	1.513687
8.953000	1.531080
8.954000	1.568443
8.955000	1.576495
8.956000	1.597109
8.957000	1.628997
8.958000	1.662494
8.959000	1.668292
8.960000	1.624809
8.961000	1.545574
8.962000	1.466983
8.963000	1.406751
8.964000	1.389358
8.965000	1.405463
8.966000	1.484698
8.967000	1.598075
8.968000	1.681176
8.969000	1.729490
8.970000	1.734321
8.971000	1.696959
8.972000	1.646712
8.973000	1.599686
8.974000	1.539132
8.975000	1.500159
8.976000	1.497904
8.977000	1.495649
8.978000	1.486309
8.979000	1.483410
8.980000	1.481155
8.981000	1.514653
8.982000	1.598720
8.983000	1.647356
8.984000	1.666360
8.985000	1.661528
8.986000	1.642525
8.987000	1.615791
8.988000	1.558136
8.989000	1.503058
8.990000	1.470848
8.991000	1.488885
8.992000	1.557814
8.993000	1.588091
8.994000	1.629319
8.995000	1.671191
8.996000	1.691483
8.997000	1.692449
8.998000	1.649611
8.999000	1.598720
9.000000	1.592600
9.001000	1.602585
9.002000	1.635438
9.003000	1.646068
9.004000	1.625131
9.005000	1.571986
9.006000	1.534301
9.007000	1.516263
9.008000	1.492751
9.009000	1.457964
9.010000	1.439283
9.011000	1.413193
9.012000	1.424144
9.013000	1.434774
9.014000	1.489208
9.015000	1.534301
9.016000	1.555881
9.017000	1.552982
9.018000	1.566832
9.019000	1.608383
9.020000	1.649933
9.021000	1.668292
9.022000	1.668292
9.023000	1.652832
9.024000	1.629319
9.025000	1.566188
9.026000	1.533979
9.027000	1.502413
9.028000	1.496616
9.029000	1.562323
9.030000	1.619978
9.031000	1.705655
9.032000	1.765243
9.033000	1.764276
9.034000	1.725947
9.035000	1.653154
9.036000	1.569087
9.037000	1.498870
9.038000	1.427688
9.039000	1.391613
9.040000	1.405141
9.041000	1.448946
9.042000	1.520129
9.043000	1.557169
9.044000	1.556847
9.045000	1.545252
9.046000	1.558458
9.047000	1.576495
9.048000	1.562645
9.049000	1.508855
9.050000	1.530758
9.051000	1.548151
9.052000	1.573596
9.053000	1.595177
9.054000	1.609027
9.055000	1.661850
9.056000	1.686007
9.057000	1.690195
9.058000	1.664749
9.059000	1.609349
9.060000	1.568443
9.061000	1.508211
9.062000	1.440249
9.063000	1.397411
9.064000	1.405785
9.065000	1.441860
9.066000	1.456032
9.067000	1.491462
9.068000	1.535589
9.069000	1.552660
9.070000	1.552016
9.071000	1.575851
9.072000	1.616435
9.073000	1.662816
9.074000	1.689228
9.075000	1.676667
9.076000	1.626098
9.077000	1.576173
9.078000	1.548795
9.079000	1.555237
9.080000	1.588091
9.081000	1.621910
9.082000	1.661206
9.083000	1.679565
9.084000	1.688906
9.085000	1.650255
9.086000	1.623843
9.087000	1.565544
9.088000	1.518840
9.089000	1.492428
9.090000	1.487919
9.091000	1.479223
9.092000	1.476324
9.093000	1.501447
9.094000	1.543642
9.095000	1.562645
9.096000	1.573918
9.097000	1.568121
9.098000	1.552016
9.099000	1.541065
9.100000	1.576495
9.101000	1.636727
9.102000	1.642202
9.103000	1.608383
9.104000	1.569087
9.105000	1.545574
9.106000	1.555237
9.107000	1.549439
9.108000	1.549117
9.109000	1.602907
9.110000	1.639948
9.111000	1.634150
9.112000	1.594855
9.113000	1.584225
9.114000	1.608060
9.115000	1.635761
9.116000	1.663139
9.117000	1.695992
9.118000	1.697925
9.119000	1.670869
9.120000	1.634472
9.121000	1.556525
9.122000	1.457964
9.123000	1.387748
9.124000	1.394512
9.125000	1.435096
9.126000	1.484054
9.127000	1.536878
9.128000	1.584548
9.129000	1.619656
9.130000	1.667970
9.131000	1.677311
9.132000	1.666360
9.133000	1.630607
9.134000	1.576173
9.135000	1.522705
9.136000	1.431231
9.137000	1.356827
9.138000	1.389358
9.139000	1.466983
9.140000	1.552982
9.141000	1.593888
9.142000	1.590989
9.143000	1.598075
9.144000	1.607094
9.145000	1.638015
9.146000	1.650255
9.147000	1.681820
9.148000	1.686329
9.149000	1.661206
9.150000	1.598075
9.151000	1.530436
9.152000	1.475357
9.153000	1.485020
9.154000	1.518840
9.155000	1.482444
9.156000	1.461830
9.157000	1.457642
9.158000	1.453455
9.159000	1.457642
9.160000	1.443470
9.161000	1.453455
9.162000	1.492751
9.163000	1.529791
9.164000	1.628674
9.165000	1.745917
9.166000	1.784246
9.167000	1.752681
9.168000	1.673768
9.169000	1.622233
9.170000	1.600008
9.171000	1.579716
9.172000	1.553304
9.173000	1.548151
9.174000	1.545896
9.175000	1.534623
9.176000	1.533012
9.177000	1.547185
9.178000	1.535911
9.179000	1.514331
9.180000	1.531402
9.181000	1.549439
9.182000	1.569087
9.183000	1.560068
9.184000	1.561679
9.185000	1.588735
9.186000	1.625454
9.187000	1.658307
9.188000	1.669903
9.189000	1.667004
9.190000	1.675378
9.191000	1.666360
9.192000	1.643813
9.193000	1.575529
9.194000	1.518196
9.195000	1.479545
9.196000	1.438317
9.197000	1.458286
9.198000	1.483732
9.199000	1.550728
9.200000	1.658629
9.201000	1.749138
9.202000	1.775872
9.203000	1.762022
9.204000	1.728202
9.205000	1.675378
9.206000	1.612570
9.207000	1.531080
9.208000	1.464728
9.209000	1.478578
9.210000	1.522705
9.211000	1.571986
9.212000	1.602907
9.213000	1.605162
9.214000	1.579394
9.215000	1.578750
9.216000	1.569731
9.217000	1.519807
9.218000	1.489530
9.219000	1.460863
9.220000	1.475357
9.221000	1.524316
9.222000	1.538810
9.223000	1.535589
9.224000	1.570375
9.225000	1.564900
9.226000	1.536555
9.227000	1.511754
9.228000	1.481155
9.229000	1.469560
9.230000	1.482444
9.231000	1.507567
9.232000	1.542997
9.233000	1.593566
9.234000	1.616435
9.235000	1.603551
9.236000	1.582615
9.237000	1.568765
9.238000	1.575851
9.239000	1.582937
9.240000	1.569409
9.241000	1.546540
9.242000	1.521095
9.243000	1.500481
9.244000	1.487919
9.245000	1.486631
9.246000	1.525282
9.247000	1.569409
9.248000	1.560390
9.249000	1.573918
9.250000	1.596143
9.251000	1.642525
9.252000	1.652832
9.253000	1.626420
9.254000	1.626742
9.255000	1.621910
9.256000	1.595177
9.257000	1.598075
9.258000	1.600008
9.259000	1.597109
9.260000	1.582615
9.261000	1.593566
9.262000	1.639626
9.263000	1.657663
9.264000	1.589701
9.265000	1.574240
9.266000	1.628997
9.267000	1.691161
9.268000	1.735610
9.269000	1.773939
9.270000	1.779415
9.271000	1.711453
9.272000	1.601619
9.273000	1.489208
9.274000	1.417058
9.275000	1.384205
9.276000	1.372609
9.277000	1.386782
9.278000	1.484376
9.279000	1.587768
9.280000	1.662816
9.281000	1.724659
9.282000	1.722082
9.283000	1.640270
9.284000	1.533979
9.285000	1.423500
9.286000	1.381628
9.287000	1.399665
9.288000	1.449268
9.289000	1.483088
9.290000	1.512076
9.291000	1.526248
9.292000	1.553304
9.293000	1.560068
9.294000	1.550728
9.295000	1.559746
9.296000	1.553626
9.297000	1.522061
9.298000	1.518518
9.299000	1.494361
9.300000	1.443148
9.301000	1.393223
9.302000	1.376474
9.303000	1.406107
9.304000	1.469560
9.305000	1.524638
9.306000	1.577461
9.307000	1.602907
9.308000	1.631573
9.309000	1.673124
9.310000	1.656697
9.311000	1.663139
9.312000	1.679888
9.313000	1.679243
9.314000	1.668614
9.315000	1.641558
9.316000	1.642202
9.317000	1.649289
9.318000	1.623521
9.319000	1.605162
9.320000	1.617723
9.321000	1.648322
9.322000	1.676022
9.323000	1.732711
9.324000	1.764598
9.325000	1.745595
9.326000	1.732067
9.327000	1.683753
9.328000	1.617401
9.329000	1.535267
9.330000	1.433807
9.331000	1.397733
9.332000	1.405463
9.333000	1.426399
9.334000	1.466017
9.335000	1.489208
9.336000	1.503058
9.337000	1.546862
9.338000	1.609349
9.339000	1.631573
9.340000	1.649289
9.341000	1.638981
9.342000	1.597753
9.343000	1.527215
9.344000	1.476002
9.345000	1.448624
9.346000	1.441215
9.347000	1.476968
9.348000	1.500803
9.349000	1.580038
9.350000	1.653154
9.351000	1.661206
9.352000	1.622877
9.353000	1.565866
9.354000	1.534623
9.355000	1.525282
9.356000	1.536233
9.357000	1.523672
9.358000	1.496616
9.359000	1.539132
9.360000	1.630607
9.361000	1.689872
9.362000	1.718861
9.363000	1.719505
9.364000	1.693738
9.365000	1.635438
9.366000	1.539132
9.367000	1.406751
9.368000	1.313666
9.369000	1.266640
9.370000	1.288543
9.371000	1.368100
9.372000	1.506923
9.373000	1.624487
9.374000	1.669258
9.375000	1.655730
9.376000	1.642525
9.377000	1.642847
9.378000	1.629641
9.379000	1.618690
9.380000	1.607738
9.381000	1.650899
9.382000	1.695992
9.383000	1.755258
9.384000	1.814845
9.385000	1.837392
9.386000	1.875077
9.387000	1.845766
9.388000	1.736254
9.389000	1.629319
9.390000	1.551372
9.391000	1.475035
9.392000	1.424789
9.393000	1.360048
9.394000	1.322363
9.395000	1.352317
9.396000	1.396444
9.397000	1.437028
9.398000	1.494361
9.399000	1.521417
9.400000	1.483410
9.401000	1.489852
9.402000	1.523994
9.403000	1.552016
9.404000	1.571020
9.405000	1.582615
9.406000	1.564900
9.407000	1.537844
9.408000	1.521739
9.409000	1.515297
9.410000	1.524638
9.411000	1.542031
9.412000	1.532368
9.413000	1.554271
9.414000	1.605806
9.415000	1.626742
9.416000	1.646068
9.417000	1.696959
9.418000	1.724981
9.419000	1.715962
9.420000	1.704689
9.421000	1.708876
9.422000	1.692771
9.423000	1.680532
9.424000	1.653476
9.425000	1.599686
9.426000	1.546862
9.427000	1.480833
9.428000	1.407073
9.429000	1.370033
9.430000	1.410939
9.431000	1.470526
9.432000	1.505956
9.433000	1.523350
9.434000	1.541065
9.435000	1.566510
9.436000	1.606128
9.437000	1.622555
9.438000	1.607094
9.439000	1.565222
9.440000	1.556847
9.441000	1.559424
9.442000	1.575207
9.443000	1.600008
9.444000	1.633828
9.445000	1.651221
9.446000	1.641236
9.447000	1.619012
9.448000	1.594855
9.449000	1.590989
9.450000	1.590667
9.451000	1.586802
9.452000	1.569087
9.453000	1.572308
9.454000	1.552338
9.455000	1.505634
9.456000	1.465373
9.457000	1.443792
9.458000	1.419635
9.459000	1.432841
9.460000	1.481477
9.461000	1.536555
9.462000	1.561679
9.463000	1.571020
9.464000	1.575529
9.465000	1.599042
9.466000	1.566188
9.467000	1.572952
9.468000	1.621266
9.469000	1.662172
9.470000	1.646068
9.471000	1.595177
9.472000	1.524638
9.473000	1.462152
9.474000	1.440249
9.475000	1.456354
9.476000	1.503380
9.477000	1.584548
9.478000	1.648644
9.479000	1.634794
9.480000	1.605162
9.481000	1.589379
9.482000	1.572952
9.483000	1.580038
9.484000	1.594855
9.485000	1.597753
9.486000	1.588091
9.487000	1.592278
9.488000	1.629641
9.489000	1.650255
9.490000	1.652832
9.491000	1.634150
9.492000	1.631573
9.493000	1.625776
9.494000	1.613214
9.495000	1.602907
9.496000	1.560390
9.497000	1.537844
9.498000	1.552016
9.499000	1.534623
9.500000	1.502736
9.501000	1.472459
9.502000	1.466339
9.503000	1.466017
9.504000	1.468271
9.505000	1.485665
9.506000	1.506279
9.507000	1.539454
9.508000	1.575529
9.509000	1.651543
9.510000	1.724659
9.511000	1.752037
9.512000	1.752359
9.513000	1.714030
9.514000	1.685041
9.515000	1.648644
9.516000	1.587768
9.517000	1.548151
9.518000	1.558780
9.519000	1.599686
9.520000	1.602907
9.521000	1.590345
9.522000	1.589701
9.523000	1.571020
9.524000	1.545252
9.525000	1.510144
9.526000	1.473747
9.527000	1.449268
9.528000	1.453777
9.529000	1.491140
9.530000	1.550083
9.531000	1.590989
9.532000	1.590667
9.533000	1.546540
9.534000	1.528181
9.535000	1.508855
9.536000	1.500803
9.537000	1.491784
9.538000	1.495649
9.539000	1.528503
9.540000	1.574240
9.541000	1.626098
9.542000	1.636727
9.543000	1.643491
9.544000	1.615469
9.545000	1.576817
9.546000	1.533979
9.547000	1.510788
9.548000	1.522061
9.549000	1.603873
9.550000	1.646068
9.551000	1.661528
9.552000	1.659596
9.553000	1.638981
9.554000	1.617723
9.555000	1.586480
9.556000	1.554915
9.557000	1.525282
9.558000	1.507567
9.559000	1.481477
9.560000	1.467949
9.561000	1.478256
9.562000	1.535911
9.563000	1.578428
9.564000	1.633506
9.565000	1.706299
9.566000	1.722404
9.567000	1.667326
9.568000	1.572952
9.569000	1.514331
9.570000	1.507889
9.571000	1.518196
9.572000	1.582293
9.573000	1.681820
9.574000	1.703723
9.575000	1.669580
9.576000	1.654442
9.577000	1.638015
9.578000	1.602585
9.579000	1.556847
9.580000	1.515941
9.581000	1.494361
9.582000	1.427688
9.583000	1.368100
9.584000	1.400632
9.585000	1.457964
9.586000	1.512720
9.587000	1.572952
9.588000	1.634472
9.589000	1.633184
9.590000	1.608060
9.591000	1.585192
9.592000	1.560390
9.593000	1.562001
9.594000	1.563933
9.595000	1.587446
9.596000	1.625454
9.597000	1.642847
9.598000	1.644135
9.599000	1.631895
9.600000	1.563611
9.601000	1.500159
9.602000	1.479867
9.603000	1.486309
9.604000	1.536878
9.605000	1.527537
9.606000	1.541709
9.607000	1.599364
9.608000	1.613858
9.609000	1.612892
9.610000	1.628030
9.611000	1.635438
9.612000	1.613214
9.613000	1.561357
9.614000	1.516586
9.615000	1.492106
9.616000	1.482444
9.617000	1.474069
9.618000	1.478578
9.619000	1.485020
9.620000	1.481477
9.621000	1.475035
9.622000	1.459253
9.623000	1.470204
9.624000	1.518840
9.625000	1.616435
9.626000	1.676667
9.627000	1.694382
9.628000	1.697281
9.629000	1.675056
9.630000	1.636405
9.631000	1.607094
9.632000	1.596143
9.633000	1.624487
9.634000	1.666037
9.635000	1.670225
9.636000	1.603873
9.637000	1.501447
9.638000	1.463440
9.639000	1.473425
9.640000	1.477612
9.641000	1.465373
9.642000	1.471170
9.643000	1.475035
9.644000	1.463762
9.645000	1.453133
9.646000	1.459253
9.647000	1.497260
9.648000	1.577139
9.649000	1.651221
9.650000	1.704045
9.651000	1.697603
9.652000	1.646712
9.653000	1.575851
9.654000	1.553304
9.655000	1.539454
9.656000	1.532690
9.657000	1.537200
9.658000	1.543642
9.659000	1.552016
9.660000	1.544286
9.661000	1.539132
9.662000	1.527859
9.663000	1.519484
9.664000	1.521739
9.665000	1.532690
9.666000	1.563289
9.667000	1.595821
9.668000	1.581327
9.669000	1.627064
9.670000	1.732389
9.671000	1.773939
9.672000	1.777482
9.673000	1.725625
9.674000	1.648000
9.675000	1.595499
9.676000	1.556525
9.677000	1.529147
9.678000	1.522705
9.679000	1.482766
9.680000	1.422212
9.681000	1.406751
9.682000	1.440571
9.683000	1.485665
9.684000	1.543319
9.685000	1.558136
9.686000	1.561357
9.687000	1.571342
9.688000	1.553626
9.689000	1.516263
9.690000	1.498548
9.691000	1.486631
9.692000	1.484054
9.693000	1.504668
9.694000	1.540743
9.695000	1.548151
9.696000	1.559102
9.697000	1.594855
9.698000	1.644457
9.699000	1.708232
9.700000	1.749782
9.701000	1.792621
9.702000	1.813235
9.703000	1.799385
9.704000	1.728524
9.705000	1.625131
9.706000	1.504668
9.707000	1.386137
9.708000	1.331703
9.709000	1.329771
9.710000	1.394512
9.711000	1.514653
9.712000	1.649933
9.713000	1.729168
9.714000	1.757512
9.715000	1.759445
9.716000	1.737220
9.717000	1.681176
9.718000	1.585514
9.719000	1.490496
9.720000	1.441538
9.721000	1.416414
9.722000	1.462474
9.723000	1.519807
9.724000	1.551050
9.725000	1.572952
9.726000	1.550728
9.727000	1.510788
9.728000	1.484698
9.729000	1.503380
9.730000	1.532368
9.731000	1.583259
9.732000	1.665715
9.733000	1.705655
9.734000	1.679243
9.735000	1.594210
9.736000	1.531724
9.737000	1.532690
9.738000	1.558780
9.739000	1.623521
9.740000	1.644779
9.741000	1.608060
9.742000	1.547507
9.743000	1.472781
9.744000	1.407718
9.745000	1.412227
9.746000	1.476968
9.747000	1.564900
9.748000	1.614824
9.749000	1.633828
9.750000	1.620300
9.751000	1.577139
9.752000	1.507889
9.753000	1.486309
9.754000	1.503058
9.755000	1.543319
9.756000	1.555559
9.757000	1.538488
9.758000	1.497582
9.759000	1.456354
9.760000	1.447979
9.761000	1.493717
9.762000	1.547507
9.763000	1.567477
9.764000	1.575851
9.765000	1.573274
9.766000	1.580038
9.767000	1.602585
9.768000	1.616113
9.769000	1.597753
9.770000	1.584548
9.771000	1.570375
9.772000	1.535267
9.773000	1.531080
9.774000	1.540743
9.775000	1.548151
9.776000	1.562001
9.777000	1.589379
9.778000	1.630607
9.779000	1.650577
9.780000	1.628674
9.781000	1.606128
9.782000	1.563611
9.783000	1.520451
9.784000	1.500803
9.785000	1.490496
9.786000	1.514009
9.787000	1.559424
9.788000	1.561035
9.789000	1.597109
9.790000	1.574240
9.791000	1.538810
9.792000	1.504990
9.793000	1.493395
9.794000	1.518518
9.795000	1.537844
9.796000	1.577139
9.797000	1.616113
9.798000	1.647678
9.799000	1.689872
9.800000	1.693093
9.801000	1.690839
9.802000	1.682786
9.803000	1.637049
9.804000	1.601619
9.805000	1.552982
9.806000	1.523027
9.807000	1.529469
9.808000	1.526571
9.809000	1.508855
9.810000	1.486953
9.811000	1.487597
9.812000	1.454099
9.813000	1.385493
9.814000	1.369711
9.815000	1.376797
9.816000	1.420924
9.817000	1.500481
9.818000	1.604839
9.819000	1.705011
9.820000	1.768464
9.821000	1.773939
9.822000	1.796486
9.823000	1.773617
9.824000	1.700824
9.825000	1.618045
9.826000	1.551694
9.827000	1.527537
9.828000	1.543319
9.829000	1.571342
9.830000	1.636727
9.831000	1.668614
9.832000	1.682786
9.833000	1.667004
9.834000	1.618045
9.835000	1.601619
9.836000	1.559424
9.837000	1.511754
9.838000	1.508211
9.839000	1.509822
9.840000	1.484376
9.841000	1.475357
9.842000	1.466661
9.843000	1.510144
9.844000	1.572308
9.845000	1.580360
9.846000	1.559746
9.847000	1.563933
9.848000	1.563611
9.849000	1.554593
9.850000	1.563933
9.851000	1.570053
9.852000	1.604195
9.853000	1.622877
9.854000	1.661206
9.855000	1.763632
9.856000	1.810014
9.857000	1.755580
9.858000	1.658307
9.859000	1.544608
9.860000	1.437028
9.861000	1.348774
9.862000	1.301749
9.863000	1.353928
9.864000	1.443470
9.865000	1.484054
9.866000	1.495972
9.867000	1.508211
9.868000	1.502413
9.869000	1.553949
9.870000	1.609349
9.871000	1.620944
9.872000	1.589379
9.873000	1.565544
9.874000	1.553949
9.875000	1.550728
9.876000	1.556847
9.877000	1.589057
9.878000	1.619656
9.879000	1.650899
9.880000	1.685041
9.881000	1.710809
9.882000	1.695670
9.883000	1.668614
9.884000	1.686651
9.885000	1.652187
9.886000	1.561357
9.887000	1.475357
9.888000	1.465695
9.889000	1.508533
9.890000	1.501447
9.891000	1.480511
9.892000	1.474069
9.893000	1.467305
9.894000	1.508855
9.895000	1.594210
9.896000	1.652509
9.897000	1.670225
9.898000	1.650577
9.899000	1.635116
9.900000	1.600974
9.901000	1.583581
9.902000	1.586802
9.903000	1.612892
9.904000	1.621588
9.905000	1.628997
9.906000	1.609993
9.907000	1.594210
9.908000	1.594210
9.909000	1.566832
9.910000	1.542031
9.911000	1.553949
9.912000	1.554915
9.913000	1.516908
9.914000	1.473747
9.915000	1.444436
9.916000	1.443470
9.917000	1.481155
9.918000	1.549761
9.919000	1.566510
9.920000	1.572952
9.921000	1.562967
9.922000	1.535911
9.923000	1.505634
9.924000	1.472137
9.925000	1.451522
9.926000	1.460863
9.927000	1.512398
9.928000	1.567154
9.929000	1.586480
9.930000	1.566510
9.931000	1.546540
9.932000	1.545252
9.933000	1.553304
9.934000	1.534623
9.935000	1.513687
9.936000	1.486953
9.937000	1.485665
9.938000	1.560390
9.939000	1.622233
9.940000	1.703400
9.941000	1.709198
9.942000	1.683431
9.943000	1.681498
9.944000	1.636727
9.945000	1.619012
9.946000	1.613536
9.947000	1.597431
9.948000	1.633506
9.949000	1.679565
9.950000	1.681820
9.951000	1.649611
9.952000	1.626742
9.953000	1.603873
9.954000	1.584548
9.955000	1.606772
9.956000	1.642525
9.957000	1.648322
9.958000	1.605484
9.959000	1.536233
9.960000	1.453133
9.961000	1.413515
9.962000	1.415126
9.963000	1.444114
9.964000	1.501447
9.965000	1.562645
9.966000	1.626098
9.967000	1.628030
9.968000	1.596787
9.969000	1.591312
9.970000	1.573274
9.971000	1.550083
9.972000	1.552338
9.973000	1.586480
9.974000	1.598398
9.975000	1.578106
9.976000	1.574240
9.977000	1.573918
9.978000	1.562645
9.979000	1.557169
9.980000	1.554593
9.981000	1.557169
9.982000	1.551372
9.983000	1.514331
9.984000	1.473103
9.985000	1.456032
9.986000	1.450878
9.987000	1.477934
9.988000	1.554915
9.989000	1.599042
9.990000	1.631573
9.991000	1.642847
9.992000	1.635116
9.993000	1.641236
9.994000	1.634794
9.995000	1.600974
9.996000	1.552660
9.997000	1.500159
9.998000	1.494361
9.999000	1.536233

