LabVIEW Measurement	
Writer_Version	2
Reader_Version	2
Separator	Tab
Decimal_Separator	.
Multi_Headings	Yes
X_Columns	One
Time_Pref	Relative
Operator	bjl40
Description	Time Domain Data
Date	1903/12/31
Time	19:00:00
***End_of_Header***	
	
Channels	1	
Samples	10000	
Date	1903/12/31	
Time	19:00:00	
X_Dimension	Time	
X0	0.0000000000000000E+0	
Delta_X	0.001000	
***End_of_Header***		
X_Value	Untitled	Comment
0.000000	1.551372	Tare Values:0.000000, 0.000000, 0.000000, 0.000000\0D\0A
0.001000	1.436062
0.002000	1.297561
0.003000	1.286288
0.004000	1.396444
0.005000	1.514331
0.006000	1.575529
0.007000	1.598075
0.008000	1.537844
0.009000	1.487597
0.010000	1.443792
0.011000	1.415126
0.012000	1.516908
0.013000	1.651865
0.014000	1.699535
0.015000	1.755580
0.016000	1.711775
0.017000	1.619656
0.018000	1.478578
0.019000	1.425755
0.020000	1.361336
0.021000	1.326872
0.022000	1.411261
0.023000	1.502736
0.024000	1.430264
0.025000	1.365845
0.026000	1.347808
0.027000	1.351351
0.028000	1.433807
0.029000	1.566832
0.030000	1.693738
0.031000	1.792943
0.032000	1.923391
0.033000	1.935309
0.034000	1.872822
0.035000	1.778126
0.036000	1.663783
0.037000	1.560713
0.038000	1.465695
0.039000	1.430586
0.040000	1.590989
0.041000	1.565544
0.042000	1.587768
0.043000	1.584225
0.044000	1.436062
0.045000	1.344587
0.046000	1.492428
0.047000	1.773939
0.048000	2.066401
0.049000	2.270931
0.050000	2.271254
0.051000	2.139195
0.052000	1.918882
0.053000	1.666360
0.054000	1.412871
0.055000	1.210274
0.056000	1.042141
0.057000	1.024103
0.058000	1.088200
0.059000	1.132327
0.060000	1.278236
0.061000	1.409328
0.062000	1.538166
0.063000	1.560068
0.064000	1.554271
0.065000	1.636405
0.066000	1.682464
0.067000	1.696636
0.068000	1.635438
0.069000	1.506923
0.070000	1.443470
0.071000	1.425111
0.072000	1.524316
0.073000	1.687296
0.074000	1.715640
0.075000	1.730778
0.076000	1.690517
0.077000	1.563289
0.078000	1.411583
0.079000	1.343621
0.080000	1.311411
0.081000	1.275659
0.082000	1.188049
0.083000	1.169368
0.084000	1.172589
0.085000	1.267284
0.086000	1.420279
0.087000	1.548473
0.088000	1.547507
0.089000	1.539776
0.090000	1.577139
0.091000	1.530114
0.092000	1.514331
0.093000	1.554271
0.094000	1.584870
0.095000	1.651221
0.096000	1.586802
0.097000	1.482444
0.098000	1.368100
0.099000	1.384849
0.100000	1.471492
0.101000	1.592922
0.102000	1.677955
0.103000	1.730778
0.104000	1.747849
0.105000	1.782314
0.106000	1.814523
0.107000	1.878942
0.108000	1.918238
0.109000	1.921459
0.110000	1.840935
0.111000	1.719827
0.112000	1.634472
0.113000	1.582293
0.114000	1.522705
0.115000	1.447013
0.116000	1.409650
0.117000	1.411261
0.118000	1.495005
0.119000	1.605162
0.120000	1.694382
0.121000	1.678921
0.122000	1.632218
0.123000	1.539132
0.124000	1.412871
0.125000	1.343943
0.126000	1.282423
0.127000	1.291764
0.128000	1.314954
0.129000	1.363591
0.130000	1.434451
0.131000	1.493073
0.132000	1.499837
0.133000	1.557492
0.134000	1.558136
0.135000	1.503702
0.136000	1.504346
0.137000	1.698569
0.138000	2.006169
0.139000	2.130176
0.140000	2.000372
0.141000	1.790366
0.142000	1.641558
0.143000	1.562645
0.144000	1.435096
0.145000	1.366812
0.146000	1.362302
0.147000	1.388714
0.148000	1.511110
0.149000	1.584548
0.150000	1.594210
0.151000	1.575207
0.152000	1.424789
0.153000	1.322363
0.154000	1.426721
0.155000	1.574240
0.156000	1.769430
0.157000	1.922747
0.158000	1.997151
0.159000	1.929189
0.160000	1.675056
0.161000	1.394834
0.162000	1.291442
0.163000	1.381950
0.164000	1.531402
0.165000	1.618045
0.166000	1.601619
0.167000	1.571342
0.168000	1.550406
0.169000	1.506279
0.170000	1.461185
0.171000	1.506279
0.172000	1.691483
0.173000	1.894080
0.174000	2.143704
0.175000	2.286714
0.176000	2.303463
0.177000	2.173337
0.178000	1.886028
0.179000	1.549439
0.180000	1.319142
0.181000	1.185795
0.182000	1.047616
0.183000	1.064365
0.184000	1.148432
0.185000	1.249569
0.186000	1.349096
0.187000	1.310445
0.188000	1.176776
0.189000	1.119765
0.190000	1.173233
0.191000	1.256011
0.192000	1.364557
0.193000	1.705333
0.194000	2.134685
0.195000	2.293156
0.196000	2.306684
0.197000	2.269965
0.198000	1.969451
0.199000	1.642525
0.200000	1.418669
0.201000	1.300460
0.202000	1.501125
0.203000	1.792943
0.204000	1.993608
0.205000	2.139195
0.206000	2.152723
0.207000	1.998761
0.208000	1.758479
0.209000	1.517552
0.210000	1.276303
0.211000	1.144567
0.212000	1.203188
0.213000	1.328160
0.214000	1.447335
0.215000	1.656375
0.216000	1.830628
0.217000	1.903099
0.218000	1.814201
0.219000	1.586158
0.220000	1.303359
0.221000	1.205442
0.222000	1.282745
0.223000	1.380984
0.224000	1.470204
0.225000	1.647678
0.226000	1.843189
0.227000	1.985877
0.228000	2.080251
0.229000	2.110528
0.230000	2.131786
0.231000	2.223261
0.232000	2.155944
0.233000	2.016799
0.234000	1.808403
0.235000	1.536878
0.236000	1.261487
0.237000	1.035377
0.238000	0.963227
0.239000	1.001557
0.240000	1.084657
0.241000	1.194491
0.242000	1.291119
0.243000	1.407073
0.244000	1.474713
0.245000	1.563611
0.246000	1.773617
0.247000	1.914372
0.248000	1.904065
0.249000	1.824186
0.250000	1.648966
0.251000	1.520129
0.252000	1.335891
0.253000	1.215749
0.254000	1.229277
0.255000	1.371321
0.256000	1.435418
0.257000	1.502091
0.258000	1.564578
0.259000	1.585836
0.260000	1.590989
0.261000	1.543319
0.262000	1.438961
0.263000	1.414804
0.264000	1.506601
0.265000	1.648966
0.266000	1.763954
0.267000	1.733677
0.268000	1.647678
0.269000	1.518196
0.270000	1.348130
0.271000	1.339756
0.272000	1.492428
0.273000	1.725625
0.274000	2.038701
0.275000	2.185254
0.276000	2.352099
0.277000	2.355965
0.278000	2.220685
0.279000	1.934342
0.280000	1.518840
0.281000	1.179353
0.282000	0.920067
0.283000	0.822794
0.284000	0.931018
0.285000	1.196102
0.286000	1.576495
0.287000	1.854785
0.288000	2.024529
0.289000	2.021308
0.290000	1.937885
0.291000	1.644779
0.292000	1.386782
0.293000	1.252790
0.294000	1.259876
0.295000	1.385171
0.296000	1.521417
0.297000	1.609027
0.298000	1.651221
0.299000	1.716606
0.300000	1.650255
0.301000	1.421568
0.302000	1.323007
0.303000	1.413193
0.304000	1.461507
0.305000	1.521739
0.306000	1.610315
0.307000	1.645423
0.308000	1.659596
0.309000	1.588413
0.310000	1.510144
0.311000	1.491784
0.312000	1.459897
0.313000	1.404819
0.314000	1.360370
0.315000	1.330415
0.316000	1.328160
0.317000	1.313666
0.318000	1.340400
0.319000	1.261165
0.320000	1.153263
0.321000	1.111069
0.322000	1.180319
0.323000	1.325584
0.324000	1.447335
0.325000	1.643491
0.326000	1.808725
0.327000	1.902777
0.328000	1.958821
0.329000	1.955278
0.330000	1.800995
0.331000	1.623521
0.332000	1.534301
0.333000	1.427043
0.334000	1.333958
0.335000	1.326872
0.336000	1.366167
0.337000	1.341366
0.338000	1.378729
0.339000	1.442182
0.340000	1.537200
0.341000	1.581971
0.342000	1.665071
0.343000	1.688906
0.344000	1.680532
0.345000	1.595499
0.346000	1.435418
0.347000	1.423178
0.348000	1.554593
0.349000	1.779415
0.350000	2.095390
0.351000	2.347590
0.352000	2.415230
0.353000	2.397193
0.354000	2.237111
0.355000	1.877976
0.356000	1.649933
0.357000	1.532368
0.358000	1.519807
0.359000	1.451845
0.360000	1.479867
0.361000	1.447979
0.362000	1.364235
0.363000	1.290475
0.364000	1.259554
0.365000	1.303359
0.366000	1.301104
0.367000	1.314954
0.368000	1.428332
0.369000	1.449590
0.370000	1.501447
0.371000	1.508533
0.372000	1.458931
0.373000	1.394834
0.374000	1.407718
0.375000	1.437995
0.376000	1.500159
0.377000	1.444436
0.378000	1.412227
0.379000	1.485342
0.380000	1.612248
0.381000	1.766853
0.382000	1.872178
0.383000	1.868635
0.384000	1.788755
0.385000	1.671835
0.386000	1.493073
0.387000	1.372287
0.388000	1.435418
0.389000	1.547507
0.390000	1.620622
0.391000	1.637371
0.392000	1.647356
0.393000	1.669903
0.394000	1.617401
0.395000	1.493395
0.396000	1.420601
0.397000	1.436706
0.398000	1.453133
0.399000	1.476968
0.400000	1.502091
0.401000	1.558780
0.402000	1.575529
0.403000	1.643169
0.404000	1.648966
0.405000	1.609671
0.406000	1.588091
0.407000	1.677633
0.408000	1.746883
0.409000	1.727235
0.410000	1.657985
0.411000	1.606128
0.412000	1.556847
0.413000	1.492106
0.414000	1.446691
0.415000	1.469560
0.416000	1.491140
0.417000	1.529147
0.418000	1.538166
0.419000	1.495005
0.420000	1.457320
0.421000	1.515941
0.422000	1.566510
0.423000	1.537522
0.424000	1.495005
0.425000	1.503058
0.426000	1.586802
0.427000	1.765565
0.428000	1.932732
0.429000	2.006814
0.430000	1.944327
0.431000	1.791010
0.432000	1.647678
0.433000	1.544286
0.434000	1.491462
0.435000	1.449590
0.436000	1.405141
0.437000	1.386137
0.438000	1.374542
0.439000	1.416092
0.440000	1.529791
0.441000	1.620300
0.442000	1.625776
0.443000	1.642847
0.444000	1.758801
0.445000	1.878298
0.446000	1.820321
0.447000	1.696636
0.448000	1.587446
0.449000	1.517874
0.450000	1.383561
0.451000	1.265352
0.452000	1.208019
0.453000	1.236041
0.454000	1.326228
0.455000	1.453455
0.456000	1.577784
0.457000	1.592922
0.458000	1.704367
0.459000	1.843834
0.460000	1.969451
0.461000	2.082184
0.462000	2.114393
0.463000	2.002304
0.464000	1.713063
0.465000	1.430586
0.466000	1.315921
0.467000	1.230888
0.468000	1.243127
0.469000	1.258588
0.470000	1.370999
0.471000	1.446047
0.472000	1.434129
0.473000	1.393868
0.474000	1.386137
0.475000	1.479867
0.476000	1.589701
0.477000	1.633828
0.478000	1.610315
0.479000	1.605484
0.480000	1.599686
0.481000	1.575851
0.482000	1.570375
0.483000	1.603229
0.484000	1.637693
0.485000	1.600974
0.486000	1.570697
0.487000	1.506601
0.488000	1.523350
0.489000	1.705333
0.490000	1.848987
0.491000	1.931766
0.492000	1.900844
0.493000	1.747527
0.494000	1.604839
0.495000	1.532368
0.496000	1.544930
0.497000	1.561035
0.498000	1.764276
0.499000	1.903421
0.500000	1.857040
0.501000	1.748494
0.502000	1.615469
0.503000	1.546862
0.504000	1.486631
0.505000	1.447657
0.506000	1.406429
0.507000	1.436062
0.508000	1.494683
0.509000	1.463118
0.510000	1.472459
0.511000	1.476968
0.512000	1.472781
0.513000	1.443470
0.514000	1.458609
0.515000	1.392579
0.516000	1.341366
0.517000	1.383238
0.518000	1.445725
0.519000	1.508855
0.520000	1.601296
0.521000	1.715962
0.522000	1.805504
0.523000	1.787467
0.524000	1.632540
0.525000	1.495649
0.526000	1.384205
0.527000	1.361336
0.528000	1.399021
0.529000	1.562645
0.530000	1.727558
0.531000	1.758479
0.532000	1.697603
0.533000	1.565544
0.534000	1.404497
0.535000	1.230566
0.536000	1.137158
0.537000	1.183540
0.538000	1.368100
0.539000	1.443148
0.540000	1.492428
0.541000	1.713707
0.542000	1.909541
0.543000	2.044499
0.544000	2.070588
0.545000	1.949481
0.546000	1.784568
0.547000	1.581649
0.548000	1.442826
0.549000	1.379051
0.550000	1.390002
0.551000	1.430264
0.552000	1.405785
0.553000	1.381950
0.554000	1.368744
0.555000	1.344587
0.556000	1.266318
0.557000	1.188693
0.558000	1.162282
0.559000	1.189982
0.560000	1.272438
0.561000	1.470848
0.562000	1.752037
0.563000	2.004237
0.564000	2.172048
0.565000	2.169472
0.566000	2.180101
0.567000	2.124056
0.568000	1.978791
0.569000	1.854785
0.570000	1.704367
0.571000	1.616113
0.572000	1.578750
0.573000	1.540743
0.574000	1.562323
0.575000	1.587124
0.576000	1.594210
0.577000	1.526893
0.578000	1.476324
0.579000	1.436062
0.580000	1.411905
0.581000	1.399665
0.582000	1.396122
0.583000	1.332992
0.584000	1.280812
0.585000	1.255045
0.586000	1.332992
0.587000	1.468271
0.588000	1.604195
0.589000	1.701468
0.590000	1.800029
0.591000	1.905676
0.592000	1.931121
0.593000	1.855751
0.594000	1.659596
0.595000	1.423822
0.596000	1.305936
0.597000	1.228311
0.598000	1.180963
0.599000	1.197712
0.600000	1.310123
0.601000	1.501769
0.602000	1.644779
0.603000	1.710486
0.604000	1.746883
0.605000	1.675056
0.606000	1.571342
0.607000	1.506601
0.608000	1.514331
0.609000	1.589057
0.610000	1.576817
0.611000	1.488241
0.612000	1.447657
0.613000	1.439605
0.614000	1.452811
0.615000	1.537522
0.616000	1.658629
0.617000	1.767819
0.618000	1.846088
0.619000	1.846088
0.620000	1.681176
0.621000	1.531724
0.622000	1.447657
0.623000	1.403530
0.624000	1.382594
0.625000	1.446691
0.626000	1.504990
0.627000	1.516263
0.628000	1.498870
0.629000	1.484054
0.630000	1.488563
0.631000	1.454099
0.632000	1.447013
0.633000	1.521095
0.634000	1.692449
0.635000	1.905354
0.636000	2.009390
0.637000	2.018731
0.638000	1.886672
0.639000	1.705977
0.640000	1.495005
0.641000	1.324617
0.642000	1.228311
0.643000	1.268895
0.644000	1.426399
0.645000	1.563933
0.646000	1.736898
0.647000	1.824186
0.648000	1.772651
0.649000	1.666682
0.650000	1.615791
0.651000	1.621588
0.652000	1.725303
0.653000	1.756546
0.654000	1.746883
0.655000	1.672479
0.656000	1.620622
0.657000	1.657985
0.658000	1.761377
0.659000	1.907286
0.660000	1.988132
0.661000	1.987810
0.662000	1.827085
0.663000	1.554593
0.664000	1.330415
0.665000	1.219292
0.666000	1.145211
0.667000	1.167113
0.668000	1.246348
0.669000	1.394834
0.670000	1.579716
0.671000	1.693738
0.672000	1.696636
0.673000	1.630285
0.674000	1.585514
0.675000	1.478901
0.676000	1.299494
0.677000	1.213495
0.678000	1.316243
0.679000	1.406107
0.680000	1.439605
0.681000	1.432519
0.682000	1.488885
0.683000	1.532690
0.684000	1.574240
0.685000	1.579394
0.686000	1.498548
0.687000	1.438961
0.688000	1.459897
0.689000	1.420924
0.690000	1.380340
0.691000	1.443148
0.692000	1.537522
0.693000	1.676344
0.694000	1.752037
0.695000	1.748172
0.696000	1.657985
0.697000	1.561679
0.698000	1.444759
0.699000	1.409328
0.700000	1.437672
0.701000	1.564578
0.702000	1.701146
0.703000	1.770074
0.704000	1.791010
0.705000	1.749138
0.706000	1.750426
0.707000	1.741408
0.708000	1.750748
0.709000	1.803250
0.710000	1.849631
0.711000	1.750748
0.712000	1.590667
0.713000	1.395478
0.714000	1.282423
0.715000	1.274693
0.716000	1.355538
0.717000	1.438961
0.718000	1.495649
0.719000	1.599364
0.720000	1.712419
0.721000	1.754936
0.722000	1.685363
0.723000	1.600652
0.724000	1.550406
0.725000	1.508533
0.726000	1.475680
0.727000	1.449590
0.728000	1.455066
0.729000	1.446047
0.730000	1.418669
0.731000	1.328160
0.732000	1.276303
0.733000	1.276303
0.734000	1.367456
0.735000	1.499837
0.736000	1.580682
0.737000	1.632862
0.738000	1.600974
0.739000	1.533979
0.740000	1.491140
0.741000	1.506923
0.742000	1.607094
0.743000	1.768464
0.744000	1.878942
0.745000	1.923069
0.746000	1.906320
0.747000	1.849309
0.748000	1.745273
0.749000	1.600008
0.750000	1.410294
0.751000	1.364557
0.752000	1.401276
0.753000	1.491784
0.754000	1.578428
0.755000	1.653798
0.756000	1.708232
0.757000	1.707588
0.758000	1.762666
0.759000	1.697925
0.760000	1.498870
0.761000	1.405785
0.762000	1.378085
0.763000	1.374542
0.764000	1.391935
0.765000	1.397733
0.766000	1.408040
0.767000	1.436384
0.768000	1.520129
0.769000	1.611926
0.770000	1.666360
0.771000	1.618045
0.772000	1.615469
0.773000	1.760733
0.774000	1.809047
0.775000	1.733677
0.776000	1.698247
0.777000	1.627064
0.778000	1.563289
0.779000	1.544608
0.780000	1.524638
0.781000	1.516263
0.782000	1.479867
0.783000	1.429620
0.784000	1.363591
0.785000	1.311089
0.786000	1.263419
0.787000	1.323973
0.788000	1.581971
0.789000	1.800351
0.790000	1.888605
0.791000	1.840613
0.792000	1.691161
0.793000	1.553304
0.794000	1.490496
0.795000	1.521739
0.796000	1.565222
0.797000	1.635438
0.798000	1.698247
0.799000	1.722726
0.800000	1.697603
0.801000	1.672801
0.802000	1.623199
0.803000	1.615469
0.804000	1.610637
0.805000	1.543964
0.806000	1.499192
0.807000	1.514975
0.808000	1.533979
0.809000	1.484698
0.810000	1.519484
0.811000	1.625454
0.812000	1.743984
0.813000	1.818388
0.814000	1.816456
0.815000	1.702434
0.816000	1.543642
0.817000	1.479545
0.818000	1.401276
0.819000	1.297239
0.820000	1.251502
0.821000	1.292730
0.822000	1.421568
0.823000	1.588091
0.824000	1.689872
0.825000	1.669580
0.826000	1.682464
0.827000	1.722082
0.828000	1.748494
0.829000	1.710486
0.830000	1.679888
0.831000	1.669258
0.832000	1.597753
0.833000	1.480833
0.834000	1.431553
0.835000	1.422212
0.836000	1.390002
0.837000	1.407396
0.838000	1.464406
0.839000	1.568765
0.840000	1.733999
0.841000	1.787145
0.842000	1.762666
0.843000	1.705011
0.844000	1.692127
0.845000	1.652509
0.846000	1.621266
0.847000	1.643169
0.848000	1.666682
0.849000	1.525282
0.850000	1.301749
0.851000	1.142634
0.852000	1.140057
0.853000	1.286932
0.854000	1.486309
0.855000	1.613536
0.856000	1.733999
0.857000	1.762022
0.858000	1.743662
0.859000	1.655730
0.860000	1.582615
0.861000	1.468593
0.862000	1.401276
0.863000	1.388070
0.864000	1.441860
0.865000	1.477934
0.866000	1.524638
0.867000	1.635438
0.868000	1.733033
0.869000	1.642202
0.870000	1.538810
0.871000	1.426399
0.872000	1.370999
0.873000	1.340078
0.874000	1.380340
0.875000	1.467305
0.876000	1.564900
0.877000	1.594532
0.878000	1.548795
0.879000	1.489852
0.880000	1.468916
0.881000	1.573596
0.882000	1.686651
0.883000	1.823220
0.884000	1.955278
0.885000	2.001982
0.886000	1.944005
0.887000	1.768464
0.888000	1.586158
0.889000	1.400632
0.890000	1.255367
0.891000	1.270828
0.892000	1.446691
0.893000	1.529147
0.894000	1.514009
0.895000	1.553304
0.896000	1.594855
0.897000	1.665393
0.898000	1.764598
0.899000	1.843512
0.900000	1.911151
0.901000	1.861871
0.902000	1.666037
0.903000	1.463440
0.904000	1.347808
0.905000	1.277592
0.906000	1.261487
0.907000	1.287576
0.908000	1.435418
0.909000	1.546218
0.910000	1.572630
0.911000	1.503702
0.912000	1.466983
0.913000	1.582293
0.914000	1.715318
0.915000	1.792621
0.916000	1.758156
0.917000	1.686007
0.918000	1.611281
0.919000	1.589379
0.920000	1.498870
0.921000	1.357793
0.922000	1.293696
0.923000	1.302393
0.924000	1.366167
0.925000	1.420924
0.926000	1.497260
0.927000	1.606450
0.928000	1.736576
0.929000	1.828695
0.930000	1.869279
0.931000	1.902133
0.932000	1.868957
0.933000	1.781669
0.934000	1.723370
0.935000	1.644457
0.936000	1.569409
0.937000	1.505312
0.938000	1.485987
0.939000	1.488563
0.940000	1.481155
0.941000	1.471814
0.942000	1.417380
0.943000	1.461507
0.944000	1.549117
0.945000	1.655730
0.946000	1.776194
0.947000	1.757834
0.948000	1.630607
0.949000	1.390325
0.950000	1.232498
0.951000	1.220903
0.952000	1.332025
0.953000	1.416414
0.954000	1.507245
0.955000	1.629963
0.956000	1.647678
0.957000	1.629963
0.958000	1.607416
0.959000	1.638659
0.960000	1.739797
0.961000	1.777482
0.962000	1.750426
0.963000	1.688262
0.964000	1.739153
0.965000	1.711775
0.966000	1.604195
0.967000	1.508855
0.968000	1.515619
0.969000	1.522383
0.970000	1.437350
0.971000	1.389680
0.972000	1.399987
0.973000	1.476002
0.974000	1.593888
0.975000	1.687940
0.976000	1.701790
0.977000	1.678599
0.978000	1.654764
0.979000	1.614824
0.980000	1.632862
0.981000	1.623843
0.982000	1.591956
0.983000	1.619012
0.984000	1.708554
0.985000	1.880552
0.986000	1.883129
0.987000	1.796808
0.988000	1.635438
0.989000	1.417380
0.990000	1.263419
0.991000	1.213173
0.992000	1.162604
0.993000	1.113323
0.994000	1.216071
0.995000	1.314954
0.996000	1.360692
0.997000	1.421246
0.998000	1.438961
0.999000	1.460863
1.000000	1.508533
1.001000	1.620622
1.002000	1.645101
1.003000	1.658629
1.004000	1.646068
1.005000	1.622233
1.006000	1.633506
1.007000	1.654120
1.008000	1.559746
1.009000	1.483410
1.010000	1.453777
1.011000	1.479223
1.012000	1.527859
1.013000	1.572308
1.014000	1.576173
1.015000	1.575207
1.016000	1.558136
1.017000	1.540421
1.018000	1.521739
1.019000	1.569409
1.020000	1.602907
1.021000	1.615147
1.022000	1.652832
1.023000	1.655408
1.024000	1.614824
1.025000	1.579072
1.026000	1.515619
1.027000	1.504668
1.028000	1.540421
1.029000	1.634794
1.030000	1.672157
1.031000	1.704045
1.032000	1.729490
1.033000	1.811624
1.034000	1.977503
1.035000	2.045465
1.036000	2.015832
1.037000	1.994574
1.038000	1.972027
1.039000	1.771040
1.040000	1.510466
1.041000	1.296917
1.042000	1.213173
1.043000	1.189660
1.044000	1.167435
1.045000	1.196746
1.046000	1.237330
1.047000	1.294018
1.048000	1.298528
1.049000	1.336213
1.050000	1.409328
1.051000	1.435096
1.052000	1.474391
1.053000	1.518196
1.054000	1.550728
1.055000	1.600008
1.056000	1.622877
1.057000	1.595821
1.058000	1.584870
1.059000	1.573274
1.060000	1.550083
1.061000	1.529147
1.062000	1.536878
1.063000	1.550083
1.064000	1.609349
1.065000	1.671191
1.066000	1.746561
1.067000	1.858972
1.068000	2.009068
1.069000	2.073809
1.070000	1.993608
1.071000	1.902777
1.072000	1.796486
1.073000	1.765243
1.074000	1.637371
1.075000	1.497904
1.076000	1.474069
1.077000	1.470848
1.078000	1.494361
1.079000	1.516908
1.080000	1.418669
1.081000	1.343621
1.082000	1.338145
1.083000	1.336213
1.084000	1.324617
1.085000	1.329127
1.086000	1.376474
1.087000	1.404497
1.088000	1.419313
1.089000	1.469560
1.090000	1.528181
1.091000	1.585836
1.092000	1.680532
1.093000	1.727235
1.094000	1.776838
1.095000	1.816134
1.096000	1.819032
1.097000	1.769430
1.098000	1.633184
1.099000	1.501447
1.100000	1.460219
1.101000	1.478901
1.102000	1.507567
1.103000	1.554593
1.104000	1.614502
1.105000	1.648322
1.106000	1.663783
1.107000	1.622877
1.108000	1.545252
1.109000	1.480189
1.110000	1.442182
1.111000	1.435418
1.112000	1.466661
1.113000	1.457964
1.114000	1.480511
1.115000	1.527215
1.116000	1.655408
1.117000	1.819999
1.118000	2.002626
1.119000	2.037091
1.120000	1.915983
1.121000	1.753969
1.122000	1.600330
1.123000	1.452811
1.124000	1.351029
1.125000	1.303359
1.126000	1.278236
1.127000	1.312700
1.128000	1.367134
1.129000	1.388070
1.130000	1.406751
1.131000	1.477612
1.132000	1.558136
1.133000	1.573596
1.134000	1.524960
1.135000	1.537200
1.136000	1.565866
1.137000	1.581327
1.138000	1.530114
1.139000	1.507567
1.140000	1.468593
1.141000	1.440893
1.142000	1.432841
1.143000	1.406429
1.144000	1.427043
1.145000	1.450556
1.146000	1.530758
1.147000	1.618690
1.148000	1.609349
1.149000	1.585192
1.150000	1.572952
1.151000	1.574885
1.152000	1.588091
1.153000	1.582615
1.154000	1.513043
1.155000	1.471492
1.156000	1.495972
1.157000	1.458609
1.158000	1.407073
1.159000	1.391613
1.160000	1.448624
1.161000	1.603873
1.162000	1.748816
1.163000	1.827085
1.164000	1.859938
1.165000	1.833205
1.166000	1.787789
1.167000	1.750426
1.168000	1.702434
1.169000	1.671513
1.170000	1.653154
1.171000	1.663139
1.172000	1.689550
1.173000	1.711131
1.174000	1.741085
1.175000	1.781669
1.176000	1.772329
1.177000	1.689872
1.178000	1.611603
1.179000	1.525604
1.180000	1.509177
1.181000	1.496938
1.182000	1.458931
1.183000	1.440249
1.184000	1.426077
1.185000	1.400632
1.186000	1.372931
1.187000	1.368422
1.188000	1.361980
1.189000	1.360370
1.190000	1.361980
1.191000	1.353928
1.192000	1.372287
1.193000	1.431875
1.194000	1.513687
1.195000	1.566832
1.196000	1.624809
1.197000	1.656375
1.198000	1.640914
1.199000	1.611603
1.200000	1.553949
1.201000	1.473747
1.202000	1.429298
1.203000	1.420924
1.204000	1.455066
1.205000	1.565866
1.206000	1.666360
1.207000	1.739153
1.208000	1.772651
1.209000	1.764276
1.210000	1.725625
1.211000	1.642202
1.212000	1.543642
1.213000	1.494683
1.214000	1.482766
1.215000	1.537844
1.216000	1.578428
1.217000	1.647678
1.218000	1.764276
1.219000	1.884418
1.220000	1.888605
1.221000	1.792621
1.222000	1.673124
1.223000	1.606128
1.224000	1.525604
1.225000	1.525604
1.226000	1.506923
1.227000	1.472781
1.228000	1.454743
1.229000	1.372609
1.230000	1.307546
1.231000	1.292086
1.232000	1.345876
1.233000	1.406107
1.234000	1.496938
1.235000	1.554271
1.236000	1.519484
1.237000	1.495649
1.238000	1.419635
1.239000	1.346520
1.240000	1.369711
1.241000	1.336535
1.242000	1.277592
1.243000	1.256333
1.244000	1.342977
1.245000	1.465373
1.246000	1.550406
1.247000	1.633506
1.248000	1.707588
1.249000	1.783924
1.250000	1.839324
1.251000	1.836426
1.252000	1.806793
1.253000	1.811302
1.254000	1.911474
1.255000	2.002626
1.256000	2.097966
1.257000	2.163996
1.258000	2.123090
1.259000	1.914695
1.260000	1.668292
1.261000	1.463762
1.262000	1.259232
1.263000	1.142312
1.264000	1.192881
1.265000	1.299172
1.266000	1.464728
1.267000	1.609993
1.268000	1.630929
1.269000	1.605162
1.270000	1.626098
1.271000	1.613858
1.272000	1.629319
1.273000	1.599042
1.274000	1.583903
1.275000	1.554915
1.276000	1.522705
1.277000	1.484054
1.278000	1.426721
1.279000	1.380018
1.280000	1.376152
1.281000	1.430264
1.282000	1.521739
1.283000	1.487597
1.284000	1.427043
1.285000	1.384849
1.286000	1.318175
1.287000	1.288221
1.288000	1.350385
1.289000	1.462474
1.290000	1.509822
1.291000	1.546540
1.292000	1.610315
1.293000	1.676989
1.294000	1.683431
1.295000	1.669580
1.296000	1.711453
1.297000	1.762344
1.298000	1.762022
1.299000	1.714352
1.300000	1.705333
1.301000	1.781669
1.302000	1.787467
1.303000	1.781025
1.304000	1.821287
1.305000	1.835781
1.306000	1.863481
1.307000	1.797130
1.308000	1.693093
1.309000	1.598075
1.310000	1.625776
1.311000	1.690839
1.312000	1.699857
1.313000	1.653476
1.314000	1.626420
1.315000	1.557169
1.316000	1.495005
1.317000	1.459575
1.318000	1.512398
1.319000	1.525926
1.320000	1.543964
1.321000	1.480511
1.322000	1.382272
1.323000	1.340078
1.324000	1.310767
1.325000	1.322685
1.326000	1.362302
1.327000	1.369711
1.328000	1.368744
1.329000	1.372931
1.330000	1.393545
1.331000	1.408040
1.332000	1.454099
1.333000	1.523027
1.334000	1.618367
1.335000	1.690839
1.336000	1.672157
1.337000	1.604839
1.338000	1.616113
1.339000	1.673768
1.340000	1.754936
1.341000	1.859294
1.342000	1.916949
1.343000	1.879264
1.344000	1.825474
1.345000	1.812590
1.346000	1.714030
1.347000	1.557814
1.348000	1.495972
1.349000	1.519807
1.350000	1.547507
1.351000	1.592278
1.352000	1.601296
1.353000	1.618045
1.354000	1.722082
1.355000	1.860261
1.356000	1.880230
1.357000	1.825474
1.358000	1.713063
1.359000	1.574240
1.360000	1.475357
1.361000	1.443148
1.362000	1.406107
1.363000	1.359403
1.364000	1.387426
1.365000	1.387426
1.366000	1.352639
1.367000	1.347164
1.368000	1.341366
1.369000	1.340722
1.370000	1.355538
1.371000	1.388392
1.372000	1.421568
1.373000	1.450556
1.374000	1.494039
1.375000	1.538488
1.376000	1.541709
1.377000	1.530436
1.378000	1.513687
1.379000	1.485020
1.380000	1.536233
1.381000	1.625454
1.382000	1.639626
1.383000	1.609027
1.384000	1.551050
1.385000	1.538166
1.386000	1.513043
1.387000	1.491784
1.388000	1.529147
1.389000	1.580682
1.390000	1.640592
1.391000	1.680532
1.392000	1.681498
1.393000	1.670225
1.394000	1.625454
1.395000	1.626742
1.396000	1.665715
1.397000	1.659273
1.398000	1.601941
1.399000	1.573596
1.400000	1.548151
1.401000	1.494361
1.402000	1.449912
1.403000	1.448302
1.404000	1.456676
1.405000	1.474391
1.406000	1.479545
1.407000	1.510788
1.408000	1.566510
1.409000	1.599042
1.410000	1.610637
1.411000	1.596143
1.412000	1.577461
1.413000	1.529147
1.414000	1.469238
1.415000	1.414804
1.416000	1.394834
1.417000	1.390002
1.418000	1.346842
1.419000	1.321074
1.420000	1.375508
1.421000	1.414160
1.422000	1.442182
1.423000	1.505634
1.424000	1.567154
1.425000	1.638337
1.426000	1.670547
1.427000	1.718539
1.428000	1.833849
1.429000	1.963009
1.430000	1.971383
1.431000	1.853497
1.432000	1.720794
1.433000	1.600652
1.434000	1.495649
1.435000	1.427043
1.436000	1.432841
1.437000	1.568121
1.438000	1.666360
1.439000	1.648966
1.440000	1.635116
1.441000	1.610637
1.442000	1.562323
1.443000	1.485342
1.444000	1.456676
1.445000	1.462474
1.446000	1.392579
1.447000	1.415448
1.448000	1.470526
1.449000	1.515297
1.450000	1.606450
1.451000	1.685685
1.452000	1.708554
1.453000	1.773617
1.454000	1.779737
1.455000	1.715962
1.456000	1.639948
1.457000	1.625131
1.458000	1.588413
1.459000	1.507567
1.460000	1.466339
1.461000	1.440893
1.462000	1.393223
1.463000	1.425433
1.464000	1.475035
1.465000	1.512720
1.466000	1.502736
1.467000	1.456032
1.468000	1.408362
1.469000	1.373898
1.470000	1.353606
1.471000	1.396766
1.472000	1.625131
1.473000	1.820321
1.474000	1.911151
1.475000	1.920814
1.476000	1.850920
1.477000	1.757512
1.478000	1.655730
1.479000	1.551372
1.480000	1.479545
1.481000	1.419635
1.482000	1.510144
1.483000	1.630929
1.484000	1.724014
1.485000	1.695026
1.486000	1.624809
1.487000	1.566510
1.488000	1.509499
1.489000	1.427043
1.490000	1.402886
1.491000	1.399343
1.492000	1.425755
1.493000	1.497260
1.494000	1.489530
1.495000	1.409006
1.496000	1.392257
1.497000	1.397733
1.498000	1.453133
1.499000	1.546862
1.500000	1.657019
1.501000	1.722404
1.502000	1.721116
1.503000	1.670869
1.504000	1.504990
1.505000	1.326872
1.506000	1.168402
1.507000	1.131683
1.508000	1.199323
1.509000	1.308190
1.510000	1.441538
1.511000	1.554593
1.512000	1.648644
1.513000	1.722726
1.514000	1.804538
1.515000	1.837392
1.516000	1.845766
1.517000	1.786501
1.518000	1.737865
1.519000	1.700824
1.520000	1.681498
1.521000	1.677955
1.522000	1.663783
1.523000	1.593566
1.524000	1.560068
1.525000	1.582615
1.526000	1.633184
1.527000	1.678599
1.528000	1.655730
1.529000	1.596465
1.530000	1.488563
1.531000	1.359081
1.532000	1.301426
1.533000	1.307546
1.534000	1.360692
1.535000	1.468916
1.536000	1.655730
1.537000	1.834815
1.538000	1.919204
1.539000	1.907286
1.540000	1.824508
1.541000	1.709198
1.542000	1.598075
1.543000	1.552016
1.544000	1.540098
1.545000	1.611926
1.546000	1.751715
1.547000	1.839002
1.548000	1.765243
1.549000	1.616113
1.550000	1.435740
1.551000	1.310767
1.552000	1.222191
1.553000	1.200611
1.554000	1.219615
1.555000	1.328160
1.556000	1.493395
1.557000	1.703723
1.558000	1.924035
1.559000	2.052551
1.560000	2.070266
1.561000	1.983945
1.562000	1.874755
1.563000	1.697925
1.564000	1.528181
1.565000	1.443470
1.566000	1.443470
1.567000	1.409006
1.568000	1.390325
1.569000	1.408684
1.570000	1.474069
1.571000	1.507245
1.572000	1.450878
1.573000	1.374864
1.574000	1.341366
1.575000	1.345876
1.576000	1.323651
1.577000	1.345876
1.578000	1.415770
1.579000	1.505634
1.580000	1.539454
1.581000	1.598398
1.582000	1.651543
1.583000	1.622555
1.584000	1.566832
1.585000	1.489530
1.586000	1.424467
1.587000	1.411583
1.588000	1.406107
1.589000	1.452811
1.590000	1.522705
1.591000	1.657663
1.592000	1.714674
1.593000	1.702434
1.594000	1.685363
1.595000	1.695348
1.596000	1.693415
1.597000	1.641236
1.598000	1.589701
1.599000	1.609671
1.600000	1.654442
1.601000	1.657019
1.602000	1.575207
1.603000	1.543642
1.604000	1.564256
1.605000	1.523027
1.606000	1.474069
1.607000	1.487919
1.608000	1.584548
1.609000	1.727558
1.610000	1.830628
1.611000	1.896657
1.612000	1.939818
1.613000	1.896657
1.614000	1.797452
1.615000	1.660562
1.616000	1.450556
1.617000	1.353284
1.618000	1.336213
1.619000	1.384849
1.620000	1.512076
1.621000	1.640914
1.622000	1.680854
1.623000	1.705011
1.624000	1.679243
1.625000	1.582615
1.626000	1.478901
1.627000	1.437350
1.628000	1.471492
1.629000	1.498226
1.630000	1.486309
1.631000	1.478901
1.632000	1.460863
1.633000	1.453777
1.634000	1.495327
1.635000	1.584870
1.636000	1.674412
1.637000	1.704045
1.638000	1.693415
1.639000	1.701146
1.640000	1.651221
1.641000	1.530758
1.642000	1.399021
1.643000	1.340400
1.644000	1.393868
1.645000	1.510466
1.646000	1.666682
1.647000	1.823220
1.648000	1.877009
1.649000	1.816134
1.650000	1.711453
1.651000	1.627386
1.652000	1.564256
1.653000	1.436062
1.654000	1.396444
1.655000	1.417058
1.656000	1.428010
1.657000	1.419957
1.658000	1.406107
1.659000	1.468916
1.660000	1.538166
1.661000	1.555881
1.662000	1.562323
1.663000	1.583903
1.664000	1.617723
1.665000	1.658629
1.666000	1.685685
1.667000	1.633828
1.668000	1.545252
1.669000	1.495327
1.670000	1.473747
1.671000	1.456354
1.672000	1.481477
1.673000	1.542031
1.674000	1.564256
1.675000	1.590023
1.676000	1.549761
1.677000	1.429298
1.678000	1.403530
1.679000	1.347486
1.680000	1.327194
1.681000	1.428010
1.682000	1.546540
1.683000	1.703400
1.684000	1.798418
1.685000	1.834493
1.686000	1.783280
1.687000	1.677311
1.688000	1.571986
1.689000	1.464084
1.690000	1.376474
1.691000	1.352639
1.692000	1.428332
1.693000	1.536233
1.694000	1.601619
1.695000	1.619334
1.696000	1.581327
1.697000	1.528825
1.698000	1.506601
1.699000	1.513043
1.700000	1.546218
1.701000	1.659596
1.702000	1.753647
1.703000	1.887961
1.704000	1.975248
1.705000	1.954634
1.706000	1.829662
1.707000	1.693093
1.708000	1.539132
1.709000	1.452167
1.710000	1.440571
1.711000	1.423822
1.712000	1.465695
1.713000	1.533012
1.714000	1.545574
1.715000	1.508533
1.716000	1.451200
1.717000	1.418347
1.718000	1.393223
1.719000	1.377119
1.720000	1.383561
1.721000	1.395800
1.722000	1.404497
1.723000	1.439927
1.724000	1.526248
1.725000	1.619334
1.726000	1.682142
1.727000	1.651865
1.728000	1.567154
1.729000	1.492428
1.730000	1.417703
1.731000	1.379695
1.732000	1.425111
1.733000	1.503702
1.734000	1.584548
1.735000	1.653154
1.736000	1.725625
1.737000	1.848021
1.738000	1.857362
1.739000	1.773939
1.740000	1.628030
1.741000	1.486631
1.742000	1.426399
1.743000	1.377763
1.744000	1.384849
1.745000	1.465695
1.746000	1.562645
1.747000	1.655086
1.748000	1.685685
1.749000	1.751070
1.750000	1.823542
1.751000	1.866058
1.752000	1.901489
1.753000	1.857040
1.754000	1.805504
1.755000	1.755902
1.756000	1.655730
1.757000	1.525926
1.758000	1.409972
1.759000	1.350385
1.760000	1.295629
1.761000	1.273082
1.762000	1.289831
1.763000	1.376797
1.764000	1.486309
1.765000	1.534301
1.766000	1.551372
1.767000	1.561357
1.768000	1.552338
1.769000	1.574240
1.770000	1.584225
1.771000	1.553304
1.772000	1.499515
1.773000	1.462152
1.774000	1.481155
1.775000	1.471814
1.776000	1.489208
1.777000	1.601619
1.778000	1.730456
1.779000	1.753969
1.780000	1.705333
1.781000	1.628352
1.782000	1.555559
1.783000	1.488563
1.784000	1.468271
1.785000	1.409972
1.786000	1.338145
1.787000	1.318175
1.788000	1.300138
1.789000	1.294663
1.790000	1.349096
1.791000	1.463118
1.792000	1.520451
1.793000	1.541709
1.794000	1.571986
1.795000	1.597753
1.796000	1.641236
1.797000	1.696636
1.798000	1.746561
1.799000	1.804538
1.800000	1.978469
1.801000	2.124056
1.802000	2.071877
1.803000	1.912440
1.804000	1.756868
1.805000	1.600974
1.806000	1.472459
1.807000	1.357793
1.808000	1.269217
1.809000	1.252468
1.810000	1.213495
1.811000	1.215749
1.812000	1.249891
1.813000	1.347164
1.814000	1.417380
1.815000	1.479223
1.816000	1.591956
1.817000	1.695348
1.818000	1.750426
1.819000	1.797452
1.820000	1.809370
1.821000	1.796808
1.822000	1.860261
1.823000	1.799707
1.824000	1.687618
1.825000	1.701468
1.826000	1.779415
1.827000	1.845444
1.828000	1.861871
1.829000	1.830950
1.830000	1.694382
1.831000	1.532368
1.832000	1.379373
1.833000	1.266318
1.834000	1.198678
1.835000	1.224124
1.836000	1.267607
1.837000	1.327838
1.838000	1.438317
1.839000	1.597753
1.840000	1.748816
1.841000	1.822575
1.842000	1.816456
1.843000	1.694704
1.844000	1.526571
1.845000	1.511754
1.846000	1.511110
1.847000	1.510466
1.848000	1.562645
1.849000	1.608383
1.850000	1.601941
1.851000	1.527537
1.852000	1.488241
1.853000	1.454421
1.854000	1.422212
1.855000	1.447979
1.856000	1.520773
1.857000	1.609993
1.858000	1.637049
1.859000	1.565222
1.860000	1.502413
1.861000	1.438961
1.862000	1.396444
1.863000	1.420601
1.864000	1.485987
1.865000	1.534945
1.866000	1.582937
1.867000	1.611603
1.868000	1.632218
1.869000	1.643813
1.870000	1.623521
1.871000	1.606128
1.872000	1.573274
1.873000	1.572952
1.874000	1.606772
1.875000	1.680532
1.876000	1.743018
1.877000	1.765243
1.878000	1.762666
1.879000	1.766209
1.880000	1.758479
1.881000	1.706621
1.882000	1.691161
1.883000	1.709520
1.884000	1.693093
1.885000	1.565222
1.886000	1.481155
1.887000	1.451522
1.888000	1.459897
1.889000	1.529791
1.890000	1.539776
1.891000	1.564578
1.892000	1.619978
1.893000	1.692771
1.894000	1.764598
1.895000	1.800029
1.896000	1.791010
1.897000	1.799707
1.898000	1.760089
1.899000	1.622877
1.900000	1.558136
1.901000	1.507245
1.902000	1.476646
1.903000	1.466983
1.904000	1.500159
1.905000	1.575851
1.906000	1.581327
1.907000	1.540421
1.908000	1.490174
1.909000	1.434451
1.910000	1.368744
1.911000	1.306580
1.912000	1.292408
1.913000	1.301749
1.914000	1.363269
1.915000	1.471170
1.916000	1.559102
1.917000	1.616435
1.918000	1.622877
1.919000	1.593566
1.920000	1.586158
1.921000	1.590989
1.922000	1.654442
1.923000	1.793909
1.924000	1.871212
1.925000	1.899234
1.926000	1.844478
1.927000	1.698891
1.928000	1.490496
1.929000	1.345876
1.930000	1.243127
1.931000	1.188049
1.932000	1.260520
1.933000	1.394512
1.934000	1.557814
1.935000	1.639304
1.936000	1.660884
1.937000	1.687296
1.938000	1.701146
1.939000	1.716284
1.940000	1.706621
1.941000	1.739797
1.942000	1.758801
1.943000	1.779093
1.944000	1.687618
1.945000	1.573918
1.946000	1.497260
1.947000	1.412227
1.948000	1.295951
1.949000	1.281135
1.950000	1.333636
1.951000	1.393223
1.952000	1.406429
1.953000	1.429298
1.954000	1.424467
1.955000	1.421246
1.956000	1.422534
1.957000	1.441860
1.958000	1.471492
1.959000	1.501447
1.960000	1.496294
1.961000	1.466017
1.962000	1.454099
1.963000	1.475680
1.964000	1.492428
1.965000	1.506601
1.966000	1.527215
1.967000	1.592922
1.968000	1.600008
1.969000	1.580360
1.970000	1.517552
1.971000	1.481155
1.972000	1.518196
1.973000	1.565544
1.974000	1.628674
1.975000	1.654120
1.976000	1.620300
1.977000	1.591956
1.978000	1.561035
1.979000	1.520451
1.980000	1.515297
1.981000	1.563933
1.982000	1.618367
1.983000	1.685685
1.984000	1.756868
1.985000	1.818066
1.986000	1.838036
1.987000	1.741730
1.988000	1.619978
1.989000	1.460219
1.990000	1.332025
1.991000	1.295629
1.992000	1.311411
1.993000	1.381950
1.994000	1.473747
1.995000	1.630607
1.996000	1.714674
1.997000	1.747527
1.998000	1.761055
1.999000	1.725947
2.000000	1.641558
2.001000	1.495972
2.002000	1.362947
2.003000	1.334924
2.004000	1.347164
2.005000	1.391291
2.006000	1.437672
2.007000	1.499515
2.008000	1.573274
2.009000	1.625131
2.010000	1.649611
2.011000	1.652832
2.012000	1.623199
2.013000	1.610959
2.014000	1.622877
2.015000	1.671191
2.016000	1.739475
2.017000	1.762988
2.018000	1.769752
2.019000	1.726913
2.020000	1.652832
2.021000	1.590345
2.022000	1.552016
2.023000	1.542675
2.024000	1.509499
2.025000	1.450878
2.026000	1.414482
2.027000	1.381628
2.028000	1.391291
2.029000	1.405463
2.030000	1.423178
2.031000	1.423822
2.032000	1.413515
2.033000	1.377763
2.034000	1.345876
2.035000	1.336857
2.036000	1.393223
2.037000	1.538488
2.038000	1.723692
2.039000	1.903099
2.040000	1.961398
2.041000	1.934342
2.042000	1.829017
2.043000	1.671513
2.044000	1.485665
2.045000	1.316565
2.046000	1.215105
2.047000	1.216071
2.048000	1.308190
2.049000	1.439605
2.050000	1.547185
2.051000	1.644779
2.052000	1.726269
2.053000	1.729812
2.054000	1.721438
2.055000	1.676667
2.056000	1.603551
2.057000	1.522705
2.058000	1.454099
2.059000	1.360692
2.060000	1.340722
2.061000	1.362624
2.062000	1.423822
2.063000	1.517230
2.064000	1.533334
2.065000	1.550728
2.066000	1.524316
2.067000	1.510788
2.068000	1.514975
2.069000	1.510144
2.070000	1.514975
2.071000	1.544930
2.072000	1.581971
2.073000	1.621266
2.074000	1.648000
2.075000	1.649611
2.076000	1.633828
2.077000	1.596465
2.078000	1.535589
2.079000	1.552338
2.080000	1.584870
2.081000	1.659596
2.082000	1.699857
2.083000	1.692449
2.084000	1.646712
2.085000	1.600652
2.086000	1.587124
2.087000	1.592278
2.088000	1.678277
2.089000	1.733677
2.090000	1.729812
2.091000	1.663461
2.092000	1.513365
2.093000	1.378085
2.094000	1.319142
2.095000	1.363591
2.096000	1.432519
2.097000	1.519807
2.098000	1.560713
2.099000	1.504990
2.100000	1.502736
2.101000	1.486953
2.102000	1.506923
2.103000	1.507889
2.104000	1.541387
2.105000	1.560713
2.106000	1.523350
2.107000	1.478256
2.108000	1.448302
2.109000	1.447657
2.110000	1.513365
2.111000	1.561035
2.112000	1.596465
2.113000	1.631251
2.114000	1.623843
2.115000	1.582615
2.116000	1.507245
2.117000	1.422856
2.118000	1.381628
2.119000	1.380662
2.120000	1.403530
2.121000	1.509499
2.122000	1.542675
2.123000	1.530758
2.124000	1.580360
2.125000	1.598398
2.126000	1.583903
2.127000	1.571342
2.128000	1.560713
2.129000	1.539776
2.130000	1.528503
2.131000	1.449268
2.132000	1.399021
2.133000	1.399021
2.134000	1.404497
2.135000	1.372287
2.136000	1.336535
2.137000	1.313988
2.138000	1.314954
2.139000	1.381628
2.140000	1.507245
2.141000	1.657985
2.142000	1.767497
2.143000	1.766209
2.144000	1.788111
2.145000	1.837392
2.146000	1.883773
2.147000	1.903099
2.148000	1.914372
2.149000	1.898268
2.150000	1.817422
2.151000	1.740763
2.152000	1.619334
2.153000	1.492428
2.154000	1.384849
2.155000	1.314632
2.156000	1.374220
2.157000	1.510788
2.158000	1.611603
2.159000	1.629641
2.160000	1.562645
2.161000	1.527215
2.162000	1.550406
2.163000	1.629963
2.164000	1.740119
2.165000	1.777482
2.166000	1.699857
2.167000	1.652187
2.168000	1.618367
2.169000	1.558136
2.170000	1.522383
2.171000	1.618367
2.172000	1.732389
2.173000	1.810014
2.174000	1.826763
2.175000	1.813557
2.176000	1.815811
2.177000	1.792621
2.178000	1.717250
2.179000	1.657985
2.180000	1.516908
2.181000	1.405141
2.182000	1.361658
2.183000	1.434451
2.184000	1.548795
2.185000	1.666682
2.186000	1.668614
2.187000	1.646068
2.188000	1.636405
2.189000	1.576495
2.190000	1.571020
2.191000	1.610959
2.192000	1.523994
2.193000	1.391935
2.194000	1.345876
2.195000	1.350707
2.196000	1.364879
2.197000	1.427043
2.198000	1.520773
2.199000	1.569087
2.200000	1.514975
2.201000	1.428332
2.202000	1.397733
2.203000	1.430908
2.204000	1.508533
2.205000	1.596465
2.206000	1.602263
2.207000	1.611603
2.208000	1.639304
2.209000	1.614502
2.210000	1.579716
2.211000	1.575851
2.212000	1.600974
2.213000	1.603873
2.214000	1.565544
2.215000	1.456354
2.216000	1.399343
2.217000	1.380662
2.218000	1.398699
2.219000	1.449268
2.220000	1.570375
2.221000	1.749138
2.222000	1.874111
2.223000	1.867991
2.224000	1.816778
2.225000	1.769752
2.226000	1.716284
2.227000	1.642847
2.228000	1.559746
2.229000	1.487275
2.230000	1.474391
2.231000	1.482766
2.232000	1.531080
2.233000	1.556525
2.234000	1.541065
2.235000	1.614502
2.236000	1.653476
2.237000	1.687618
2.238000	1.673446
2.239000	1.667970
2.240000	1.639626
2.241000	1.543319
2.242000	1.399021
2.243000	1.312056
2.244000	1.298206
2.245000	1.328805
2.246000	1.368100
2.247000	1.440571
2.248000	1.473747
2.249000	1.485665
2.250000	1.540743
2.251000	1.547185
2.252000	1.526248
2.253000	1.460541
2.254000	1.443792
2.255000	1.473425
2.256000	1.508211
2.257000	1.550083
2.258000	1.582615
2.259000	1.546862
2.260000	1.543964
2.261000	1.539454
2.262000	1.564256
2.263000	1.599042
2.264000	1.649611
2.265000	1.657663
2.266000	1.589701
2.267000	1.503702
2.268000	1.412549
2.269000	1.341688
2.270000	1.294985
2.271000	1.278236
2.272000	1.329449
2.273000	1.374542
2.274000	1.444436
2.275000	1.526248
2.276000	1.571664
2.277000	1.603551
2.278000	1.675700
2.279000	1.692449
2.280000	1.685041
2.281000	1.655086
2.282000	1.656697
2.283000	1.685685
2.284000	1.726913
2.285000	1.752037
2.286000	1.718539
2.287000	1.654442
2.288000	1.592922
2.289000	1.582615
2.290000	1.588413
2.291000	1.619012
2.292000	1.689872
2.293000	1.665071
2.294000	1.556203
2.295000	1.486953
2.296000	1.464728
2.297000	1.452167
2.298000	1.452489
2.299000	1.472137
2.300000	1.480189
2.301000	1.484054
2.302000	1.504990
2.303000	1.512076
2.304000	1.578428
2.305000	1.686329
2.306000	1.823864
2.307000	1.960754
2.308000	1.990387
2.309000	1.884096
2.310000	1.758801
2.311000	1.551694
2.312000	1.350707
2.313000	1.272116
2.314000	1.321396
2.315000	1.395478
2.316000	1.402564
2.317000	1.396122
2.318000	1.376152
2.319000	1.351673
2.320000	1.332992
2.321000	1.336857
2.322000	1.370999
2.323000	1.526248
2.324000	1.697603
2.325000	1.794875
2.326000	1.815489
2.327000	1.776838
2.328000	1.701468
2.329000	1.580360
2.330000	1.466339
2.331000	1.419313
2.332000	1.472137
2.333000	1.588091
2.334000	1.640914
2.335000	1.618690
2.336000	1.565222
2.337000	1.506601
2.338000	1.459897
2.339000	1.411583
2.340000	1.437995
2.341000	1.470848
2.342000	1.451845
2.343000	1.501769
2.344000	1.606450
2.345000	1.706299
2.346000	1.762344
2.347000	1.771684
2.348000	1.731745
2.349000	1.675700
2.350000	1.656697
2.351000	1.659918
2.352000	1.624809
2.353000	1.594532
2.354000	1.507889
2.355000	1.479545
2.356000	1.446047
2.357000	1.431875
2.358000	1.443470
2.359000	1.508533
2.360000	1.625131
2.361000	1.711131
2.362000	1.686329
2.363000	1.630607
2.364000	1.625131
2.365000	1.599364
2.366000	1.550728
2.367000	1.530114
2.368000	1.536555
2.369000	1.564256
2.370000	1.554593
2.371000	1.553626
2.372000	1.525604
2.373000	1.450878
2.374000	1.431875
2.375000	1.410939
2.376000	1.420279
2.377000	1.440893
2.378000	1.452489
2.379000	1.469882
2.380000	1.499837
2.381000	1.600330
2.382000	1.706621
2.383000	1.780381
2.384000	1.760411
2.385000	1.669580
2.386000	1.557492
2.387000	1.465695
2.388000	1.377441
2.389000	1.353284
2.390000	1.356183
2.391000	1.380018
2.392000	1.405141
2.393000	1.395478
2.394000	1.463762
2.395000	1.559746
2.396000	1.647034
2.397000	1.733677
2.398000	1.747849
2.399000	1.705333
2.400000	1.641558
2.401000	1.635438
2.402000	1.650255
2.403000	1.678599
2.404000	1.729168
2.405000	1.735932
2.406000	1.688584
2.407000	1.626098
2.408000	1.624487
2.409000	1.620944
2.410000	1.599364
2.411000	1.531724
2.412000	1.476002
2.413000	1.450878
2.414000	1.463118
2.415000	1.500481
2.416000	1.543319
2.417000	1.662172
2.418000	1.811624
2.419000	1.831594
2.420000	1.781992
2.421000	1.702756
2.422000	1.649289
2.423000	1.630285
2.424000	1.506923
2.425000	1.407396
2.426000	1.341044
2.427000	1.350063
2.428000	1.399987
2.429000	1.439605
2.430000	1.448302
2.431000	1.400309
2.432000	1.375830
2.433000	1.379373
2.434000	1.406429
2.435000	1.456676
2.436000	1.547185
2.437000	1.667648
2.438000	1.802606
2.439000	1.838036
2.440000	1.827729
2.441000	1.774583
2.442000	1.778126
2.443000	1.748816
2.444000	1.695026
2.445000	1.641558
2.446000	1.596143
2.447000	1.532046
2.448000	1.460863
2.449000	1.350707
2.450000	1.298206
2.451000	1.311089
2.452000	1.351351
2.453000	1.394834
2.454000	1.482121
2.455000	1.572308
2.456000	1.625776
2.457000	1.634472
2.458000	1.632540
2.459000	1.628997
2.460000	1.616435
2.461000	1.633184
2.462000	1.651221
2.463000	1.667326
2.464000	1.685041
2.465000	1.725947
2.466000	1.737220
2.467000	1.677955
2.468000	1.634150
2.469000	1.588413
2.470000	1.583581
2.471000	1.588413
2.472000	1.544286
2.473000	1.473425
2.474000	1.433485
2.475000	1.351995
2.476000	1.285322
2.477000	1.326872
2.478000	1.496616
2.479000	1.637371
2.480000	1.676022
2.481000	1.683431
2.482000	1.621588
2.483000	1.526571
2.484000	1.454099
2.485000	1.404175
2.486000	1.423500
2.487000	1.472459
2.488000	1.518518
2.489000	1.537200
2.490000	1.469238
2.491000	1.433163
2.492000	1.408040
2.493000	1.366490
2.494000	1.393868
2.495000	1.464084
2.496000	1.499515
2.497000	1.494361
2.498000	1.499515
2.499000	1.465695
2.500000	1.439283
2.501000	1.442504
2.502000	1.472459
2.503000	1.518196
2.504000	1.576495
2.505000	1.634472
2.506000	1.694704
2.507000	1.705011
2.508000	1.691483
2.509000	1.627386
2.510000	1.546862
2.511000	1.455066
2.512000	1.431875
2.513000	1.406429
2.514000	1.453777
2.515000	1.578106
2.516000	1.670547
2.517000	1.670869
2.518000	1.657019
2.519000	1.642202
2.520000	1.640914
2.521000	1.604517
2.522000	1.553304
2.523000	1.479223
2.524000	1.429942
2.525000	1.382272
2.526000	1.370033
2.527000	1.380984
2.528000	1.421568
2.529000	1.511432
2.530000	1.618045
2.531000	1.733033
2.532000	1.791976
2.533000	1.809692
2.534000	1.798740
2.535000	1.703400
2.536000	1.576173
2.537000	1.452811
2.538000	1.379695
2.539000	1.381628
2.540000	1.469882
2.541000	1.532046
2.542000	1.559746
2.543000	1.525282
2.544000	1.495649
2.545000	1.496294
2.546000	1.520451
2.547000	1.508533
2.548000	1.466661
2.549000	1.459253
2.550000	1.524960
2.551000	1.628030
2.552000	1.659273
2.553000	1.601619
2.554000	1.546218
2.555000	1.522705
2.556000	1.443792
2.557000	1.390002
2.558000	1.403853
2.559000	1.468593
2.560000	1.531080
2.561000	1.709520
2.562000	1.921459
2.563000	2.046109
2.564000	2.018731
2.565000	1.927256
2.566000	1.834493
2.567000	1.714996
2.568000	1.588735
2.569000	1.495327
2.570000	1.459253
2.571000	1.446691
2.572000	1.404175
2.573000	1.390325
2.574000	1.389680
2.575000	1.437350
2.576000	1.481155
2.577000	1.540421
2.578000	1.617079
2.579000	1.697281
2.580000	1.779415
2.581000	1.833849
2.582000	1.816778
2.583000	1.709842
2.584000	1.612892
2.585000	1.481477
2.586000	1.371643
2.587000	1.309479
2.588000	1.351995
2.589000	1.427688
2.590000	1.474069
2.591000	1.547507
2.592000	1.597753
2.593000	1.628997
2.594000	1.596143
2.595000	1.500803
2.596000	1.416414
2.597000	1.366490
2.598000	1.398055
2.599000	1.492106
2.600000	1.581327
2.601000	1.657985
2.602000	1.684075
2.603000	1.671835
2.604000	1.599042
2.605000	1.513365
2.606000	1.434451
2.607000	1.479545
2.608000	1.546862
2.609000	1.626742
2.610000	1.693738
2.611000	1.733999
2.612000	1.759767
2.613000	1.702756
2.614000	1.591312
2.615000	1.478256
2.616000	1.449268
2.617000	1.446691
2.618000	1.405785
2.619000	1.388070
2.620000	1.406751
2.621000	1.472137
2.622000	1.591634
2.623000	1.676344
2.624000	1.729812
2.625000	1.732711
2.626000	1.670225
2.627000	1.608705
2.628000	1.583581
2.629000	1.562967
2.630000	1.547829
2.631000	1.522705
2.632000	1.523027
2.633000	1.558136
2.634000	1.595821
2.635000	1.617723
2.636000	1.633184
2.637000	1.622555
2.638000	1.587446
2.639000	1.540743
2.640000	1.551372
2.641000	1.586480
2.642000	1.693093
2.643000	1.748494
2.644000	1.749138
2.645000	1.738831
2.646000	1.719505
2.647000	1.658629
2.648000	1.652509
2.649000	1.615791
2.650000	1.511432
2.651000	1.479545
2.652000	1.472459
2.653000	1.435418
2.654000	1.414482
2.655000	1.398055
2.656000	1.355216
2.657000	1.370033
2.658000	1.382594
2.659000	1.389036
2.660000	1.405141
2.661000	1.453133
2.662000	1.510144
2.663000	1.564256
2.664000	1.594855
2.665000	1.630607
2.666000	1.646712
2.667000	1.701468
2.668000	1.790688
2.669000	1.857040
2.670000	1.866058
2.671000	1.768141
2.672000	1.615791
2.673000	1.471814
2.674000	1.376152
2.675000	1.348130
2.676000	1.355538
2.677000	1.368422
2.678000	1.380018
2.679000	1.409650
2.680000	1.405141
2.681000	1.374542
2.682000	1.366167
2.683000	1.391613
2.684000	1.430908
2.685000	1.486953
2.686000	1.549117
2.687000	1.614180
2.688000	1.681176
2.689000	1.719827
2.690000	1.714030
2.691000	1.696636
2.692000	1.678921
2.693000	1.616435
2.694000	1.545574
2.695000	1.483410
2.696000	1.436062
2.697000	1.459253
2.698000	1.463440
2.699000	1.487597
2.700000	1.571664
2.701000	1.647034
2.702000	1.672479
2.703000	1.683753
2.704000	1.692771
2.705000	1.670225
2.706000	1.668614
2.707000	1.736576
2.708000	1.758801
2.709000	1.799063
2.710000	1.866380
2.711000	1.904387
2.712000	1.877332
2.713000	1.787145
2.714000	1.674734
2.715000	1.572952
2.716000	1.442504
2.717000	1.400309
2.718000	1.352639
2.719000	1.345553
2.720000	1.349419
2.721000	1.391935
2.722000	1.468916
2.723000	1.527215
2.724000	1.572308
2.725000	1.567799
2.726000	1.518518
2.727000	1.471492
2.728000	1.397089
2.729000	1.395800
2.730000	1.439927
2.731000	1.537522
2.732000	1.592600
2.733000	1.598398
2.734000	1.579072
2.735000	1.543642
2.736000	1.490818
2.737000	1.409972
2.738000	1.311089
2.739000	1.221225
2.740000	1.232498
2.741000	1.341688
2.742000	1.492751
2.743000	1.519162
2.744000	1.527215
2.745000	1.541709
2.746000	1.508855
2.747000	1.549439
2.748000	1.664427
2.749000	1.715640
2.750000	1.706621
2.751000	1.730134
2.752000	1.733033
2.753000	1.655730
2.754000	1.555881
2.755000	1.504024
2.756000	1.540098
2.757000	1.582615
2.758000	1.549761
2.759000	1.538166
2.760000	1.568121
2.761000	1.593244
2.762000	1.594855
2.763000	1.637049
2.764000	1.668614
2.765000	1.674412
2.766000	1.620300
2.767000	1.548151
2.768000	1.513043
2.769000	1.502091
2.770000	1.485342
2.771000	1.511110
2.772000	1.546862
2.773000	1.558136
2.774000	1.569731
2.775000	1.557492
2.776000	1.540743
2.777000	1.501125
2.778000	1.460541
2.779000	1.452811
2.780000	1.505312
2.781000	1.617401
2.782000	1.714996
2.783000	1.728846
2.784000	1.686329
2.785000	1.571342
2.786000	1.416414
2.787000	1.293696
2.788000	1.308835
2.789000	1.448946
2.790000	1.531402
2.791000	1.585192
2.792000	1.591634
2.793000	1.608705
2.794000	1.630929
2.795000	1.659918
2.796000	1.699857
2.797000	1.736898
2.798000	1.706299
2.799000	1.616435
2.800000	1.543642
2.801000	1.503380
2.802000	1.538810
2.803000	1.589701
2.804000	1.647034
2.805000	1.663461
2.806000	1.629641
2.807000	1.582615
2.808000	1.487597
2.809000	1.366490
2.810000	1.306258
2.811000	1.298528
2.812000	1.342977
2.813000	1.387104
2.814000	1.451200
2.815000	1.530114
2.816000	1.632862
2.817000	1.673446
2.818000	1.633506
2.819000	1.619334
2.820000	1.560390
2.821000	1.520773
2.822000	1.492751
2.823000	1.491462
2.824000	1.512076
2.825000	1.531724
2.826000	1.541387
2.827000	1.556525
2.828000	1.590989
2.829000	1.632862
2.830000	1.658951
2.831000	1.690195
2.832000	1.731101
2.833000	1.788111
2.834000	1.829339
2.835000	1.771040
2.836000	1.678599
2.837000	1.576495
2.838000	1.502091
2.839000	1.428976
2.840000	1.425755
2.841000	1.520451
2.842000	1.698247
2.843000	1.747527
2.844000	1.724337
2.845000	1.606450
2.846000	1.506279
2.847000	1.411261
2.848000	1.348130
2.849000	1.327838
2.850000	1.448302
2.851000	1.687940
2.852000	1.816778
2.853000	1.835781
2.854000	1.714030
2.855000	1.534301
2.856000	1.362624
2.857000	1.227989
2.858000	1.173877
2.859000	1.199323
2.860000	1.354894
2.861000	1.494039
2.862000	1.543642
2.863000	1.570053
2.864000	1.572308
2.865000	1.544608
2.866000	1.447979
2.867000	1.367456
2.868000	1.300460
2.869000	1.250536
2.870000	1.264064
2.871000	1.339756
2.872000	1.446369
2.873000	1.604195
2.874000	1.682464
2.875000	1.716928
2.876000	1.712419
2.877000	1.668292
2.878000	1.612248
2.879000	1.576817
2.880000	1.558458
2.881000	1.536233
2.882000	1.539132
2.883000	1.571986
2.884000	1.667648
2.885000	1.768786
2.886000	1.800029
2.887000	1.771362
2.888000	1.711453
2.889000	1.609993
2.890000	1.523027
2.891000	1.399665
2.892000	1.341044
2.893000	1.395156
2.894000	1.522383
2.895000	1.558136
2.896000	1.561035
2.897000	1.561357
2.898000	1.606128
2.899000	1.639948
2.900000	1.614824
2.901000	1.599042
2.902000	1.623199
2.903000	1.727235
2.904000	1.839969
2.905000	1.931121
2.906000	1.891826
2.907000	1.834171
2.908000	1.714030
2.909000	1.588091
2.910000	1.418669
2.911000	1.370999
2.912000	1.420601
2.913000	1.534945
2.914000	1.617079
2.915000	1.647356
2.916000	1.619012
2.917000	1.547185
2.918000	1.477612
2.919000	1.488241
2.920000	1.523994
2.921000	1.507567
2.922000	1.550083
2.923000	1.568765
2.924000	1.546218
2.925000	1.537522
2.926000	1.569731
2.927000	1.574885
2.928000	1.581971
2.929000	1.616435
2.930000	1.638015
2.931000	1.645423
2.932000	1.630929
2.933000	1.573918
2.934000	1.525282
2.935000	1.472459
2.936000	1.450556
2.937000	1.460219
2.938000	1.478256
2.939000	1.478901
2.940000	1.476002
2.941000	1.478901
2.942000	1.492106
2.943000	1.533979
2.944000	1.600008
2.945000	1.698247
2.946000	1.752037
2.947000	1.712097
2.948000	1.667326
2.949000	1.619334
2.950000	1.572952
2.951000	1.518518
2.952000	1.501125
2.953000	1.455710
2.954000	1.483410
2.955000	1.533334
2.956000	1.475035
2.957000	1.409328
2.958000	1.428332
2.959000	1.512720
2.960000	1.580360
2.961000	1.599364
2.962000	1.657341
2.963000	1.782958
2.964000	1.899556
2.965000	1.957533
2.966000	1.965908
2.967000	1.877332
2.968000	1.742696
2.969000	1.649289
2.970000	1.550406
2.971000	1.510144
2.972000	1.505634
2.973000	1.620944
2.974000	1.699213
2.975000	1.714996
2.976000	1.685041
2.977000	1.654120
2.978000	1.576817
2.979000	1.496616
2.980000	1.379373
2.981000	1.353928
2.982000	1.391613
2.983000	1.459897
2.984000	1.500481
2.985000	1.566510
2.986000	1.625131
2.987000	1.653476
2.988000	1.632540
2.989000	1.593566
2.990000	1.534301
2.991000	1.482444
2.992000	1.462474
2.993000	1.480511
2.994000	1.589057
2.995000	1.659918
2.996000	1.668292
2.997000	1.663461
2.998000	1.652509
2.999000	1.633184
3.000000	1.561357
3.001000	1.499837
3.002000	1.434774
3.003000	1.467305
3.004000	1.479223
3.005000	1.449268
3.006000	1.405141
3.007000	1.372287
3.008000	1.366812
3.009000	1.449590
3.010000	1.556847
3.011000	1.674090
3.012000	1.741408
3.013000	1.721438
3.014000	1.698569
3.015000	1.649289
3.016000	1.587768
3.017000	1.557492
3.018000	1.547829
3.019000	1.565222
3.020000	1.534945
3.021000	1.498870
3.022000	1.492106
3.023000	1.523027
3.024000	1.587124
3.025000	1.604195
3.026000	1.636083
3.027000	1.676989
3.028000	1.733677
3.029000	1.805182
3.030000	1.870568
3.031000	1.888283
3.032000	1.797774
3.033000	1.648322
3.034000	1.518518
3.035000	1.426077
3.036000	1.335568
3.037000	1.314954
3.038000	1.302393
3.039000	1.336857
3.040000	1.378085
3.041000	1.409650
3.042000	1.465695
3.043000	1.510788
3.044000	1.554593
3.045000	1.582937
3.046000	1.538810
3.047000	1.517874
3.048000	1.473425
3.049000	1.433807
3.050000	1.391291
3.051000	1.370355
3.052000	1.401920
3.053000	1.489852
3.054000	1.572630
3.055000	1.642847
3.056000	1.668936
3.057000	1.622233
3.058000	1.613214
3.059000	1.632540
3.060000	1.562323
3.061000	1.487597
3.062000	1.451200
3.063000	1.427688
3.064000	1.429298
3.065000	1.427688
3.066000	1.398055
3.067000	1.388392
3.068000	1.401598
3.069000	1.435740
3.070000	1.441860
3.071000	1.428976
3.072000	1.432841
3.073000	1.418347
3.074000	1.426721
3.075000	1.412549
3.076000	1.389036
3.077000	1.388714
3.078000	1.376152
3.079000	1.387426
3.080000	1.456998
3.081000	1.542675
3.082000	1.570697
3.083000	1.556847
3.084000	1.567154
3.085000	1.622233
3.086000	1.643491
3.087000	1.570375
3.088000	1.508211
3.089000	1.466339
3.090000	1.455710
3.091000	1.451522
3.092000	1.509499
3.093000	1.586802
3.094000	1.699535
3.095000	1.785535
3.096000	1.827729
3.097000	1.836103
3.098000	1.788755
3.099000	1.650255
3.100000	1.532046
3.101000	1.512076
3.102000	1.526248
3.103000	1.488241
3.104000	1.467627
3.105000	1.504990
3.106000	1.491462
3.107000	1.465050
3.108000	1.439927
3.109000	1.436706
3.110000	1.471492
3.111000	1.515619
3.112000	1.617401
3.113000	1.730134
3.114000	1.865092
3.115000	1.993608
3.116000	2.013256
3.117000	1.944971
3.118000	1.783280
3.119000	1.555881
3.120000	1.373254
3.121000	1.343943
3.122000	1.412871
3.123000	1.513687
3.124000	1.580360
3.125000	1.743340
3.126000	1.827085
3.127000	1.751715
3.128000	1.572630
3.129000	1.499192
3.130000	1.472459
3.131000	1.472781
3.132000	1.467949
3.133000	1.427365
3.134000	1.363913
3.135000	1.275015
3.136000	1.180963
3.137000	1.133937
3.138000	1.190626
3.139000	1.387426
3.140000	1.550083
3.141000	1.617401
3.142000	1.748816
3.143000	1.827085
3.144000	1.832238
3.145000	1.792621
3.146000	1.784568
3.147000	1.739797
3.148000	1.747849
3.149000	1.784890
3.150000	1.773939
3.151000	1.703723
3.152000	1.660240
3.153000	1.538810
3.154000	1.354250
3.155000	1.286288
3.156000	1.335891
3.157000	1.411583
3.158000	1.504990
3.159000	1.653798
3.160000	1.767819
3.161000	1.889249
3.162000	1.943039
3.163000	1.859938
3.164000	1.687940
3.165000	1.571020
3.166000	1.468593
3.167000	1.405141
3.168000	1.458931
3.169000	1.619978
3.170000	1.765243
3.171000	1.922425
3.172000	1.944327
3.173000	1.882163
3.174000	1.709842
3.175000	1.583259
3.176000	1.569731
3.177000	1.591634
3.178000	1.594855
3.179000	1.557492
3.180000	1.552660
3.181000	1.533334
3.182000	1.573596
3.183000	1.591634
3.184000	1.561679
3.185000	1.564900
3.186000	1.576495
3.187000	1.523994
3.188000	1.465050
3.189000	1.503380
3.190000	1.646390
3.191000	1.654442
3.192000	1.696314
3.193000	1.745917
3.194000	1.727235
3.195000	1.700179
3.196000	1.584548
3.197000	1.671835
3.198000	1.811946
3.199000	1.980724
3.200000	1.984267
3.201000	1.861227
3.202000	1.785857
3.203000	1.659273
3.204000	1.667970
3.205000	1.549117
3.206000	1.437028
3.207000	1.410616
3.208000	1.386782
3.209000	1.313988
3.210000	1.236041
3.211000	1.189338
3.212000	1.239584
3.213000	1.177098
3.214000	1.215427
3.215000	1.320108
3.216000	1.434774
3.217000	1.581327
3.218000	1.622555
3.219000	1.647034
3.220000	1.727880
3.221000	1.747205
3.222000	1.657019
3.223000	1.649611
3.224000	1.622233
3.225000	1.569087
3.226000	1.534945
3.227000	1.496938
3.228000	1.390647
3.229000	1.333314
3.230000	1.292086
3.231000	1.192236
3.232000	1.196424
3.233000	1.209630
3.234000	1.254079
3.235000	1.273082
3.236000	1.321074
3.237000	1.365201
3.238000	1.420924
3.239000	1.501125
3.240000	1.598075
3.241000	1.748172
3.242000	1.855429
3.243000	1.883773
3.244000	1.881841
3.245000	1.772329
3.246000	1.599364
3.247000	1.488885
3.248000	1.500159
3.249000	1.533657
3.250000	1.549439
3.251000	1.556203
3.252000	1.521095
3.253000	1.457320
3.254000	1.412871
3.255000	1.367778
3.256000	1.343621
3.257000	1.362302
3.258000	1.411583
3.259000	1.444114
3.260000	1.446047
3.261000	1.419635
3.262000	1.411905
3.263000	1.420924
3.264000	1.436062
3.265000	1.477934
3.266000	1.544930
3.267000	1.588091
3.268000	1.613858
3.269000	1.606772
3.270000	1.527537
3.271000	1.411905
3.272000	1.337823
3.273000	1.316243
3.274000	1.387104
3.275000	1.560713
3.276000	1.752359
3.277000	1.833849
3.278000	1.844800
3.279000	1.808725
3.280000	1.654120
3.281000	1.568443
3.282000	1.552982
3.283000	1.568121
3.284000	1.609671
3.285000	1.685685
3.286000	1.717895
3.287000	1.734966
3.288000	1.726591
3.289000	1.740441
3.290000	1.745595
3.291000	1.728846
3.292000	1.701468
3.293000	1.547829
3.294000	1.414482
3.295000	1.374220
3.296000	1.381950
3.297000	1.418991
3.298000	1.437028
3.299000	1.499192
3.300000	1.575207
3.301000	1.650255
3.302000	1.662172
3.303000	1.660240
3.304000	1.628352
3.305000	1.589057
3.306000	1.601619
3.307000	1.640592
3.308000	1.670869
3.309000	1.685685
3.310000	1.665393
3.311000	1.645745
3.312000	1.615147
3.313000	1.572952
3.314000	1.523350
3.315000	1.544930
3.316000	1.654442
3.317000	1.715318
3.318000	1.695026
3.319000	1.701790
3.320000	1.687296
3.321000	1.597753
3.322000	1.665393
3.323000	1.854141
3.324000	1.871534
3.325000	1.836748
3.326000	1.800029
3.327000	1.704689
3.328000	1.658629
3.329000	1.530758
3.330000	1.345553
3.331000	1.258266
3.332000	1.218970
3.333000	1.169046
3.334000	1.199967
3.335000	1.233142
3.336000	1.255689
3.337000	1.264708
3.338000	1.311734
3.339000	1.331381
3.340000	1.405785
3.341000	1.462796
3.342000	1.538810
3.343000	1.593566
3.344000	1.621910
3.345000	1.559102
3.346000	1.480833
3.347000	1.496938
3.348000	1.542353
3.349000	1.623521
3.350000	1.662816
3.351000	1.623843
3.352000	1.568765
3.353000	1.549117
3.354000	1.472459
3.355000	1.441215
3.356000	1.484698
3.357000	1.540421
3.358000	1.550083
3.359000	1.482766
3.360000	1.437672
3.361000	1.431553
3.362000	1.450878
3.363000	1.484054
3.364000	1.557814
3.365000	1.576173
3.366000	1.583581
3.367000	1.625131
3.368000	1.624487
3.369000	1.654764
3.370000	1.611926
3.371000	1.549761
3.372000	1.548795
3.373000	1.520129
3.374000	1.547185
3.375000	1.540421
3.376000	1.614502
3.377000	1.716928
3.378000	1.657985
3.379000	1.648966
3.380000	1.587124
3.381000	1.539454
3.382000	1.596787
3.383000	1.685363
3.384000	1.803250
3.385000	1.891182
3.386000	1.868635
3.387000	1.749782
3.388000	1.610959
3.389000	1.458609
3.390000	1.384527
3.391000	1.389036
3.392000	1.447013
3.393000	1.577784
3.394000	1.644779
3.395000	1.577784
3.396000	1.442182
3.397000	1.346520
3.398000	1.318820
3.399000	1.329449
3.400000	1.368744
3.401000	1.430264
3.402000	1.493717
3.403000	1.540098
3.404000	1.559424
3.405000	1.544608
3.406000	1.497904
3.407000	1.429298
3.408000	1.331059
3.409000	1.276625
3.410000	1.356183
3.411000	1.501769
3.412000	1.735932
3.413000	1.929833
3.414000	1.991353
3.415000	1.889893
3.416000	1.784890
3.417000	1.696314
3.418000	1.595821
3.419000	1.460863
3.420000	1.399021
3.421000	1.456032
3.422000	1.563611
3.423000	1.628352
3.424000	1.676022
3.425000	1.657663
3.426000	1.597431
3.427000	1.532690
3.428000	1.547185
3.429000	1.664427
3.430000	1.795197
3.431000	1.890537
3.432000	1.895369
3.433000	1.835781
3.434000	1.673124
3.435000	1.433163
3.436000	1.274048
3.437000	1.189338
3.438000	1.180319
3.439000	1.256333
3.440000	1.328805
3.441000	1.350385
3.442000	1.381628
3.443000	1.404497
3.444000	1.414804
3.445000	1.434451
3.446000	1.465695
3.447000	1.534945
3.448000	1.616435
3.449000	1.666037
3.450000	1.584870
3.451000	1.409650
3.452000	1.308190
3.453000	1.224124
3.454000	1.204476
3.455000	1.296273
3.456000	1.472137
3.457000	1.663783
3.458000	1.942717
3.459000	2.106985
3.460000	2.136618
3.461000	2.027106
3.462000	1.810658
3.463000	1.573596
3.464000	1.451845
3.465000	1.358759
3.466000	1.299816
3.467000	1.348452
3.468000	1.446047
3.469000	1.567154
3.470000	1.579072
3.471000	1.545896
3.472000	1.519162
3.473000	1.522705
3.474000	1.564900
3.475000	1.714030
3.476000	1.844156
3.477000	1.829017
3.478000	1.714674
3.479000	1.542353
3.480000	1.444436
3.481000	1.405785
3.482000	1.396766
3.483000	1.397733
3.484000	1.437350
3.485000	1.563933
3.486000	1.542031
3.487000	1.498226
3.488000	1.371643
3.489000	1.279202
3.490000	1.256011
3.491000	1.271150
3.492000	1.331703
3.493000	1.471492
3.494000	1.530114
3.495000	1.571664
3.496000	1.688906
3.497000	1.704045
3.498000	1.704045
3.499000	1.679243
3.500000	1.618045
3.501000	1.619978
3.502000	1.572952
3.503000	1.537844
3.504000	1.525604
3.505000	1.559102
3.506000	1.539132
3.507000	1.589057
3.508000	1.634794
3.509000	1.690195
3.510000	1.683753
3.511000	1.603551
3.512000	1.585192
3.513000	1.703400
3.514000	1.836426
3.515000	1.868957
3.516000	1.875077
3.517000	1.835137
3.518000	1.652832
3.519000	1.379051
3.520000	1.165181
3.521000	1.055668
3.522000	1.035377
3.523000	1.103983
3.524000	1.265674
3.525000	1.501125
3.526000	1.744306
3.527000	1.937885
3.528000	2.000372
3.529000	1.948192
3.530000	1.913084
3.531000	1.774905
3.532000	1.572308
3.533000	1.437350
3.534000	1.441860
3.535000	1.482444
3.536000	1.528181
3.537000	1.554593
3.538000	1.525926
3.539000	1.451200
3.540000	1.410939
3.541000	1.399987
3.542000	1.369711
3.543000	1.374542
3.544000	1.454421
3.545000	1.610637
3.546000	1.830628
3.547000	1.980080
3.548000	2.022274
3.549000	2.018087
3.550000	1.932088
3.551000	1.690839
3.552000	1.526571
3.553000	1.511110
3.554000	1.645423
3.555000	1.791010
3.556000	1.920492
3.557000	1.953668
3.558000	1.977181
3.559000	1.860905
3.560000	1.630607
3.561000	1.486309
3.562000	1.441860
3.563000	1.451522
3.564000	1.394512
3.565000	1.317853
3.566000	1.318175
3.567000	1.353928
3.568000	1.376474
3.569000	1.404819
3.570000	1.479545
3.571000	1.511110
3.572000	1.498870
3.573000	1.499837
3.574000	1.531724
3.575000	1.504990
3.576000	1.542675
3.577000	1.699857
3.578000	1.875399
3.579000	1.894403
3.580000	1.865092
3.581000	1.744306
3.582000	1.596143
3.583000	1.466661
3.584000	1.351029
3.585000	1.403853
3.586000	1.561357
3.587000	1.684719
3.588000	1.833527
3.589000	1.886350
3.590000	1.868635
3.591000	1.772007
3.592000	1.628352
3.593000	1.621910
3.594000	1.643491
3.595000	1.644779
3.596000	1.557814
3.597000	1.428010
3.598000	1.365201
3.599000	1.290475
3.600000	1.270183
3.601000	1.278236
3.602000	1.328805
3.603000	1.451845
3.604000	1.599042
3.605000	1.654120
3.606000	1.637371
3.607000	1.641558
3.608000	1.557814
3.609000	1.418025
3.610000	1.334602
3.611000	1.321074
3.612000	1.315921
3.613000	1.323973
3.614000	1.399021
3.615000	1.452811
3.616000	1.501125
3.617000	1.561679
3.618000	1.594532
3.619000	1.540743
3.620000	1.548473
3.621000	1.570697
3.622000	1.558136
3.623000	1.580038
3.624000	1.629963
3.625000	1.626742
3.626000	1.596143
3.627000	1.539454
3.628000	1.517552
3.629000	1.479223
3.630000	1.456676
3.631000	1.504346
3.632000	1.611926
3.633000	1.744951
3.634000	1.795197
3.635000	1.731745
3.636000	1.705333
3.637000	1.774905
3.638000	1.885062
3.639000	1.872822
3.640000	1.767175
3.641000	1.677955
3.642000	1.586158
3.643000	1.475357
3.644000	1.424467
3.645000	1.434774
3.646000	1.476646
3.647000	1.533334
3.648000	1.514009
3.649000	1.423178
3.650000	1.433807
3.651000	1.422856
3.652000	1.340722
3.653000	1.315277
3.654000	1.311411
3.655000	1.373576
3.656000	1.413837
3.657000	1.464728
3.658000	1.615791
3.659000	1.793909
3.660000	1.912440
3.661000	1.866058
3.662000	1.756546
3.663000	1.617723
3.664000	1.463440
3.665000	1.388392
3.666000	1.364235
3.667000	1.322363
3.668000	1.314954
3.669000	1.303681
3.670000	1.335891
3.671000	1.399021
3.672000	1.485342
3.673000	1.559746
3.674000	1.626098
3.675000	1.676344
3.676000	1.724981
3.677000	1.806149
3.678000	1.798418
3.679000	1.693738
3.680000	1.611603
3.681000	1.578106
3.682000	1.600974
3.683000	1.657663
3.684000	1.684719
3.685000	1.658307
3.686000	1.667970
3.687000	1.690839
3.688000	1.705977
3.689000	1.643169
3.690000	1.536233
3.691000	1.481155
3.692000	1.416414
3.693000	1.388714
3.694000	1.396444
3.695000	1.455066
3.696000	1.553304
3.697000	1.626098
3.698000	1.607416
3.699000	1.532368
3.700000	1.475357
3.701000	1.460863
3.702000	1.433807
3.703000	1.425755
3.704000	1.553626
3.705000	1.616435
3.706000	1.688906
3.707000	1.609349
3.708000	1.551372
3.709000	1.568121
3.710000	1.706943
3.711000	1.915661
3.712000	2.084438
3.713000	2.099899
3.714000	1.947226
3.715000	1.736576
3.716000	1.572630
3.717000	1.374864
3.718000	1.224768
3.719000	1.126529
3.720000	1.113645
3.721000	1.155840
3.722000	1.192559
3.723000	1.282745
3.724000	1.435740
3.725000	1.594855
3.726000	1.651865
3.727000	1.583581
3.728000	1.496294
3.729000	1.487919
3.730000	1.520451
3.731000	1.566832
3.732000	1.552338
3.733000	1.540743
3.734000	1.554593
3.735000	1.556525
3.736000	1.600652
3.737000	1.696636
3.738000	1.747527
3.739000	1.710164
3.740000	1.636727
3.741000	1.545252
3.742000	1.501447
3.743000	1.584225
3.744000	1.662816
3.745000	1.654442
3.746000	1.748816
3.747000	1.900200
3.748000	1.956889
3.749000	1.887961
3.750000	1.800351
3.751000	1.667970
3.752000	1.549117
3.753000	1.428976
3.754000	1.342977
3.755000	1.272438
3.756000	1.281779
3.757000	1.331703
3.758000	1.411905
3.759000	1.408362
3.760000	1.402564
3.761000	1.390002
3.762000	1.423500
3.763000	1.428654
3.764000	1.439927
3.765000	1.422212
3.766000	1.373576
3.767000	1.292730
3.768000	1.327194
3.769000	1.477934
3.770000	1.621588
3.771000	1.781669
3.772000	1.837714
3.773000	1.830628
3.774000	1.827407
3.775000	1.794231
3.776000	1.724014
3.777000	1.549117
3.778000	1.469238
3.779000	1.459575
3.780000	1.493073
3.781000	1.538166
3.782000	1.563611
3.783000	1.519484
3.784000	1.463118
3.785000	1.445081
3.786000	1.410616
3.787000	1.433163
3.788000	1.502091
3.789000	1.484698
3.790000	1.483088
3.791000	1.498548
3.792000	1.555881
3.793000	1.618045
3.794000	1.747527
3.795000	1.832238
3.796000	1.852208
3.797000	1.797452
3.798000	1.621588
3.799000	1.487597
3.800000	1.434129
3.801000	1.482444
3.802000	1.560713
3.803000	1.617079
3.804000	1.667004
3.805000	1.676667
3.806000	1.679888
3.807000	1.617723
3.808000	1.516908
3.809000	1.426077
3.810000	1.380340
3.811000	1.328805
3.812000	1.337501
3.813000	1.356827
3.814000	1.413837
3.815000	1.540098
3.816000	1.640270
3.817000	1.682142
3.818000	1.754936
3.819000	1.794553
3.820000	1.689872
3.821000	1.556203
3.822000	1.514653
3.823000	1.537200
3.824000	1.577461
3.825000	1.670225
3.826000	1.782958
3.827000	1.835137
3.828000	1.808725
3.829000	1.715318
3.830000	1.572630
3.831000	1.530114
3.832000	1.502091
3.833000	1.477934
3.834000	1.510788
3.835000	1.590345
3.836000	1.604839
3.837000	1.537200
3.838000	1.569731
3.839000	1.702756
3.840000	1.832882
3.841000	1.861227
3.842000	1.796808
3.843000	1.710486
3.844000	1.561035
3.845000	1.421890
3.846000	1.351351
3.847000	1.294663
3.848000	1.332025
3.849000	1.406751
3.850000	1.433485
3.851000	1.378729
3.852000	1.292408
3.853000	1.212206
3.854000	1.195780
3.855000	1.239584
3.856000	1.391613
3.857000	1.617079
3.858000	1.705977
3.859000	1.726913
3.860000	1.736576
3.861000	1.716606
3.862000	1.637693
3.863000	1.580360
3.864000	1.571342
3.865000	1.562645
3.866000	1.518840
3.867000	1.524960
3.868000	1.598720
3.869000	1.574563
3.870000	1.611926
3.871000	1.682464
3.872000	1.695348
3.873000	1.675378
3.874000	1.638981
3.875000	1.639626
3.876000	1.668936
3.877000	1.662172
3.878000	1.629641
3.879000	1.556847
3.880000	1.526248
3.881000	1.571986
3.882000	1.584870
3.883000	1.528503
3.884000	1.541387
3.885000	1.567799
3.886000	1.613858
3.887000	1.639304
3.888000	1.652187
3.889000	1.687296
3.890000	1.741730
3.891000	1.768141
3.892000	1.787789
3.893000	1.816778
3.894000	1.740119
3.895000	1.601296
3.896000	1.443792
3.897000	1.349419
3.898000	1.313344
3.899000	1.489530
3.900000	1.724337
3.901000	1.807759
3.902000	1.777804
3.903000	1.661528
3.904000	1.502736
3.905000	1.326550
3.906000	1.225734
3.907000	1.176776
3.908000	1.206409
3.909000	1.278236
3.910000	1.399021
3.911000	1.538488
3.912000	1.674412
3.913000	1.833205
3.914000	1.894080
3.915000	1.885062
3.916000	1.797774
3.917000	1.617723
3.918000	1.474713
3.919000	1.405463
3.920000	1.334280
3.921000	1.370999
3.922000	1.444436
3.923000	1.471814
3.924000	1.494683
3.925000	1.512398
3.926000	1.524960
3.927000	1.496294
3.928000	1.493395
3.929000	1.487597
3.930000	1.438961
3.931000	1.418347
3.932000	1.439927
3.933000	1.460219
3.934000	1.498226
3.935000	1.549439
3.936000	1.557492
3.937000	1.561035
3.938000	1.632862
3.939000	1.741408
3.940000	1.812590
3.941000	1.811946
3.942000	1.782958
3.943000	1.717895
3.944000	1.652832
3.945000	1.618690
3.946000	1.611603
3.947000	1.611281
3.948000	1.650577
3.949000	1.707266
3.950000	1.740763
3.951000	1.694382
3.952000	1.601296
3.953000	1.496616
3.954000	1.422856
3.955000	1.456998
3.956000	1.504990
3.957000	1.609993
3.958000	1.763310
3.959000	1.834815
3.960000	1.883773
3.961000	1.873788
3.962000	1.808403
3.963000	1.768786
3.964000	1.719183
3.965000	1.631895
3.966000	1.511432
3.967000	1.458609
3.968000	1.532368
3.969000	1.669903
3.970000	1.769108
3.971000	1.841579
3.972000	1.872500
3.973000	1.752359
3.974000	1.558780
3.975000	1.423178
3.976000	1.330415
3.977000	1.396766
3.978000	1.476002
3.979000	1.561035
3.980000	1.678277
3.981000	1.829662
3.982000	1.883451
3.983000	1.896979
3.984000	1.996184
3.985000	2.096678
3.986000	1.994252
3.987000	1.666037
3.988000	1.437995
3.989000	1.483410
3.990000	1.644457
3.991000	1.735932
3.992000	1.727880
3.993000	1.635761
3.994000	1.455388
3.995000	1.358759
3.996000	1.313988
3.997000	1.281457
3.998000	1.431875
3.999000	1.681176
4.000000	1.766531
4.001000	1.868957
4.002000	1.952380
4.003000	1.734321
4.004000	1.575851
4.005000	1.607416
4.006000	1.905354
4.007000	2.252250
4.008000	2.302819
4.009000	2.211988
4.010000	1.946260
4.011000	1.664749
4.012000	1.364557
4.013000	1.126851
4.014000	1.018628
4.015000	0.942935
4.016000	0.914269
4.017000	0.995759
4.018000	1.116222
4.019000	1.238940
4.020000	1.252468
4.021000	1.274371
4.022000	1.244094
4.023000	1.222513
4.024000	1.267929
4.025000	1.387748
4.026000	1.420924
4.027000	1.392901
4.028000	1.323329
4.029000	1.247637
4.030000	1.236041
4.031000	1.223802
4.032000	1.217360
4.033000	1.260520
4.034000	1.279202
4.035000	1.294018
4.036000	1.330737
4.037000	1.403853
4.038000	1.466017
4.039000	1.510788
4.040000	1.495327
4.041000	1.452489
4.042000	1.412549
4.043000	1.347486
4.044000	1.332992
4.045000	1.272116
4.046000	1.216716
4.047000	1.234109
4.048000	1.299172
4.049000	1.396122
4.050000	1.481155
4.051000	1.558458
4.052000	1.616757
4.053000	1.682786
4.054000	1.686651
4.055000	1.654120
4.056000	1.592922
4.057000	1.551694
4.058000	1.611281
4.059000	1.734644
4.060000	1.944005
4.061000	2.137906
4.062000	2.207801
4.063000	2.166251
4.064000	1.959466
4.065000	1.663139
4.066000	1.458286
4.067000	1.297239
4.068000	1.231532
4.069000	1.292408
4.070000	1.403530
4.071000	1.469560
4.072000	1.492106
4.073000	1.523027
4.074000	1.529791
4.075000	1.559746
4.076000	1.544608
4.077000	1.522705
4.078000	1.536233
4.079000	1.595821
4.080000	1.674412
4.081000	1.770074
4.082000	1.885706
4.083000	1.926612
4.084000	1.881197
4.085000	1.724659
4.086000	1.569087
4.087000	1.397089
4.088000	1.267607
4.089000	1.252146
4.090000	1.384205
4.091000	1.615469
4.092000	1.818710
4.093000	1.954312
4.094000	1.962042
4.095000	1.858972
4.096000	1.700179
4.097000	1.479545
4.098000	1.338145
4.099000	1.299172
4.100000	1.315599
4.101000	1.323973
4.102000	1.375508
4.103000	1.451200
4.104000	1.562323
4.105000	1.650899
4.106000	1.687618
4.107000	1.711131
4.108000	1.687296
4.109000	1.581004
4.110000	1.553626
4.111000	1.508855
4.112000	1.554915
4.113000	1.740441
4.114000	1.928222
4.115000	2.014544
4.116000	2.118581
4.117000	2.124378
4.118000	2.057060
4.119000	1.941428
4.120000	1.739797
4.121000	1.491140
4.122000	1.302071
4.123000	1.174199
4.124000	1.191592
4.125000	1.239262
4.126000	1.323973
4.127000	1.427688
4.128000	1.547507
4.129000	1.583903
4.130000	1.619978
4.131000	1.608060
4.132000	1.499837
4.133000	1.442182
4.134000	1.496616
4.135000	1.522705
4.136000	1.472459
4.137000	1.442182
4.138000	1.491140
4.139000	1.523350
4.140000	1.526893
4.141000	1.497260
4.142000	1.468271
4.143000	1.461185
4.144000	1.479223
4.145000	1.453133
4.146000	1.465373
4.147000	1.501125
4.148000	1.515619
4.149000	1.574563
4.150000	1.657985
4.151000	1.755902
4.152000	1.834493
4.153000	1.909219
4.154000	1.882807
4.155000	1.747205
4.156000	1.566510
4.157000	1.390969
4.158000	1.323007
4.159000	1.342655
4.160000	1.379051
4.161000	1.423500
4.162000	1.557492
4.163000	1.682142
4.164000	1.753003
4.165000	1.735288
4.166000	1.655086
4.167000	1.583903
4.168000	1.552338
4.169000	1.505956
4.170000	1.447335
4.171000	1.463762
4.172000	1.529147
4.173000	1.552338
4.174000	1.571986
4.175000	1.594855
4.176000	1.605162
4.177000	1.587446
4.178000	1.566832
4.179000	1.569409
4.180000	1.598720
4.181000	1.632862
4.182000	1.676667
4.183000	1.641880
4.184000	1.567154
4.185000	1.467949
4.186000	1.345553
4.187000	1.253757
4.188000	1.165503
4.189000	1.115900
4.190000	1.181607
4.191000	1.340078
4.192000	1.535267
4.193000	1.668936
4.194000	1.787467
4.195000	1.799063
4.196000	1.698247
4.197000	1.581327
4.198000	1.514975
4.199000	1.529147
4.200000	1.577784
4.201000	1.653154
4.202000	1.725303
4.203000	1.751070
4.204000	1.805182
4.205000	1.831594
4.206000	1.865414
4.207000	1.978791
4.208000	1.979758
4.209000	1.919204
4.210000	1.770718
4.211000	1.550406
4.212000	1.364557
4.213000	1.281457
4.214000	1.224124
4.215000	1.171622
4.216000	1.235719
4.217000	1.308835
4.218000	1.386137
4.219000	1.479867
4.220000	1.479867
4.221000	1.470204
4.222000	1.479545
4.223000	1.523994
4.224000	1.634150
4.225000	1.637371
4.226000	1.536878
4.227000	1.507889
4.228000	1.570053
4.229000	1.683108
4.230000	1.777804
4.231000	1.866702
4.232000	1.944649
4.233000	1.955923
4.234000	1.888605
4.235000	1.833205
4.236000	1.722726
4.237000	1.564578
4.238000	1.387748
4.239000	1.273082
4.240000	1.205120
4.241000	1.198356
4.242000	1.330093
4.243000	1.512720
4.244000	1.535589
4.245000	1.517552
4.246000	1.484698
4.247000	1.478256
4.248000	1.492751
4.249000	1.505634
4.250000	1.507245
4.251000	1.506279
4.252000	1.507245
4.253000	1.509177
4.254000	1.512720
4.255000	1.524960
4.256000	1.529469
4.257000	1.537522
4.258000	1.561679
4.259000	1.599042
4.260000	1.644779
4.261000	1.688584
4.262000	1.693738
4.263000	1.647356
4.264000	1.593244
4.265000	1.572308
4.266000	1.539454
4.267000	1.519484
4.268000	1.505956
4.269000	1.497904
4.270000	1.514331
4.271000	1.540743
4.272000	1.552338
4.273000	1.537844
4.274000	1.536555
4.275000	1.528503
4.276000	1.512720
4.277000	1.496294
4.278000	1.511754
4.279000	1.523350
4.280000	1.521095
4.281000	1.529469
4.282000	1.529469
4.283000	1.525926
4.284000	1.527215
4.285000	1.532046
4.286000	1.525604
4.287000	1.521095
4.288000	1.531724
4.289000	1.532690
4.290000	1.525926
4.291000	1.514975
4.292000	1.519162
4.293000	1.523027
4.294000	1.540421
4.295000	1.564578
4.296000	1.619012
4.297000	1.689872
4.298000	1.739153
4.299000	1.771362
4.300000	1.747205
4.301000	1.696314
4.302000	1.613214
4.303000	1.488563
4.304000	1.387748
4.305000	1.400309
4.306000	1.445081
4.307000	1.528181
4.308000	1.574240
4.309000	1.574885
4.310000	1.513043
4.311000	1.502413
4.312000	1.519484
4.313000	1.531402
4.314000	1.553626
4.315000	1.567799
4.316000	1.585836
4.317000	1.609671
4.318000	1.607416
4.319000	1.587124
4.320000	1.578428
4.321000	1.547185
4.322000	1.550406
4.323000	1.567154
4.324000	1.575207
4.325000	1.565866
4.326000	1.520773
4.327000	1.510144
4.328000	1.503702
4.329000	1.479223
4.330000	1.459575
4.331000	1.467305
4.332000	1.480511
4.333000	1.514009
4.334000	1.637371
4.335000	1.818388
4.336000	1.971061
4.337000	2.076708
4.338000	2.072521
4.339000	1.975248
4.340000	1.798740
4.341000	1.585192
4.342000	1.407073
4.343000	1.304003
4.344000	1.243127
4.345000	1.260520
4.346000	1.306258
4.347000	1.326228
4.348000	1.300138
4.349000	1.281779
4.350000	1.289187
4.351000	1.323651
4.352000	1.377441
4.353000	1.449590
4.354000	1.565544
4.355000	1.706943
4.356000	1.850276
4.357000	1.911151
4.358000	1.910185
4.359000	1.881197
4.360000	1.788433
4.361000	1.616113
4.362000	1.430264
4.363000	1.312700
4.364000	1.270828
4.365000	1.332992
4.366000	1.460219
4.367000	1.567799
4.368000	1.613858
4.369000	1.660562
4.370000	1.622233
4.371000	1.597109
4.372000	1.574240
4.373000	1.535911
4.374000	1.521739
4.375000	1.497582
4.376000	1.471492
4.377000	1.432841
4.378000	1.437028
4.379000	1.485020
4.380000	1.525926
4.381000	1.575529
4.382000	1.627386
4.383000	1.647034
4.384000	1.617401
4.385000	1.567477
4.386000	1.513687
4.387000	1.538810
4.388000	1.713707
4.389000	1.925646
4.390000	1.990709
4.391000	1.928545
4.392000	1.746561
4.393000	1.581327
4.394000	1.462474
4.395000	1.412549
4.396000	1.374220
4.397000	1.368100
4.398000	1.393545
4.399000	1.436384
4.400000	1.487275
4.401000	1.525282
4.402000	1.541065
4.403000	1.562001
4.404000	1.601296
4.405000	1.560068
4.406000	1.477612
4.407000	1.381628
4.408000	1.332348
4.409000	1.367456
4.410000	1.443470
4.411000	1.557169
4.412000	1.678921
4.413000	1.781347
4.414000	1.801317
4.415000	1.752037
4.416000	1.725625
4.417000	1.679565
4.418000	1.589057
4.419000	1.457964
4.420000	1.442504
4.421000	1.470526
4.422000	1.463118
4.423000	1.432197
4.424000	1.424467
4.425000	1.447013
4.426000	1.467949
4.427000	1.484376
4.428000	1.513687
4.429000	1.569087
4.430000	1.607738
4.431000	1.662816
4.432000	1.635761
4.433000	1.624809
4.434000	1.682464
4.435000	1.706299
4.436000	1.656697
4.437000	1.630929
4.438000	1.718217
4.439000	1.812590
4.440000	1.823864
4.441000	1.690195
4.442000	1.650899
4.443000	1.616757
4.444000	1.587124
4.445000	1.530114
4.446000	1.461185
4.447000	1.417058
4.448000	1.488563
4.449000	1.585192
4.450000	1.579394
4.451000	1.523027
4.452000	1.492751
4.453000	1.444114
4.454000	1.422212
4.455000	1.394512
4.456000	1.361014
4.457000	1.370677
4.458000	1.428010
4.459000	1.501769
4.460000	1.549439
4.461000	1.641236
4.462000	1.693738
4.463000	1.672479
4.464000	1.654120
4.465000	1.631573
4.466000	1.585192
4.467000	1.523672
4.468000	1.464084
4.469000	1.400632
4.470000	1.439605
4.471000	1.510788
4.472000	1.602263
4.473000	1.676022
4.474000	1.648322
4.475000	1.614502
4.476000	1.525926
4.477000	1.403530
4.478000	1.371321
4.479000	1.419635
4.480000	1.483088
4.481000	1.507889
4.482000	1.500481
4.483000	1.481477
4.484000	1.426399
4.485000	1.405141
4.486000	1.475680
4.487000	1.578750
4.488000	1.674412
4.489000	1.695348
4.490000	1.625776
4.491000	1.577139
4.492000	1.582293
4.493000	1.581327
4.494000	1.613858
4.495000	1.651543
4.496000	1.683431
4.497000	1.609027
4.498000	1.458931
4.499000	1.312700
4.500000	1.249247
4.501000	1.323651
4.502000	1.487919
4.503000	1.608060
4.504000	1.615791
4.505000	1.582937
4.506000	1.531402
4.507000	1.596143
4.508000	1.650899
4.509000	1.635438
4.510000	1.599364
4.511000	1.646712
4.512000	1.728846
4.513000	1.738831
4.514000	1.684397
4.515000	1.609671
4.516000	1.529469
4.517000	1.468916
4.518000	1.429620
4.519000	1.408362
4.520000	1.447013
4.521000	1.517230
4.522000	1.580038
4.523000	1.626742
4.524000	1.677633
4.525000	1.683108
4.526000	1.665715
4.527000	1.717895
4.528000	1.777160
4.529000	1.791654
4.530000	1.791332
4.531000	1.774905
4.532000	1.763954
4.533000	1.683431
4.534000	1.574563
4.535000	1.497582
4.536000	1.482444
4.537000	1.550406
4.538000	1.698891
4.539000	1.802606
4.540000	1.847377
4.541000	1.795519
4.542000	1.668614
4.543000	1.506601
4.544000	1.331059
4.545000	1.228633
4.546000	1.250213
4.547000	1.362624
4.548000	1.588091
4.549000	1.815167
4.550000	1.928867
4.551000	1.871856
4.552000	1.745595
4.553000	1.636083
4.554000	1.570697
4.555000	1.477934
4.556000	1.390647
4.557000	1.356183
4.558000	1.361014
4.559000	1.381628
4.560000	1.442826
4.561000	1.515619
4.562000	1.550728
4.563000	1.574563
4.564000	1.532690
4.565000	1.507245
4.566000	1.462474
4.567000	1.453777
4.568000	1.507889
4.569000	1.609671
4.570000	1.617401
4.571000	1.598720
4.572000	1.624165
4.573000	1.686329
4.574000	1.748172
4.575000	1.825152
4.576000	1.833527
4.577000	1.810980
4.578000	1.724659
4.579000	1.627064
4.580000	1.593566
4.581000	1.525604
4.582000	1.514009
4.583000	1.485987
4.584000	1.424789
4.585000	1.374542
4.586000	1.347486
4.587000	1.350385
4.588000	1.388392
4.589000	1.414160
4.590000	1.433485
4.591000	1.430908
4.592000	1.446691
4.593000	1.482121
4.594000	1.502736
4.595000	1.523350
4.596000	1.465695
4.597000	1.404175
4.598000	1.387748
4.599000	1.429298
4.600000	1.519807
4.601000	1.663139
4.602000	1.762988
4.603000	1.819677
4.604000	1.791654
4.605000	1.708554
4.606000	1.639304
4.607000	1.587446
4.608000	1.560390
4.609000	1.539454
4.610000	1.636405
4.611000	1.694060
4.612000	1.734966
4.613000	1.719505
4.614000	1.722082
4.615000	1.739153
4.616000	1.801317
4.617000	1.882163
4.618000	1.943361
4.619000	1.943361
4.620000	1.854785
4.621000	1.708876
4.622000	1.555559
4.623000	1.458931
4.624000	1.380984
4.625000	1.425111
4.626000	1.595821
4.627000	1.723370
4.628000	1.724981
4.629000	1.668292
4.630000	1.557814
4.631000	1.420601
4.632000	1.277592
4.633000	1.256011
4.634000	1.301426
4.635000	1.378729
4.636000	1.469882
4.637000	1.541709
4.638000	1.581649
4.639000	1.593566
4.640000	1.621266
4.641000	1.601296
4.642000	1.537844
4.643000	1.469882
4.644000	1.438317
4.645000	1.451845
4.646000	1.508855
4.647000	1.505956
4.648000	1.581971
4.649000	1.769430
4.650000	1.914372
4.651000	1.863481
4.652000	1.739475
4.653000	1.689550
4.654000	1.634794
4.655000	1.537522
4.656000	1.439605
4.657000	1.398377
4.658000	1.427365
4.659000	1.525282
4.660000	1.593244
4.661000	1.581327
4.662000	1.506601
4.663000	1.494683
4.664000	1.581649
4.665000	1.673124
4.666000	1.706943
4.667000	1.698247
4.668000	1.670869
4.669000	1.622233
4.670000	1.563611
4.671000	1.523672
4.672000	1.531080
4.673000	1.613858
4.674000	1.632862
4.675000	1.613536
4.676000	1.562323
4.677000	1.566510
4.678000	1.529469
4.679000	1.457642
4.680000	1.441215
4.681000	1.484698
4.682000	1.556847
4.683000	1.571020
4.684000	1.461830
4.685000	1.367134
4.686000	1.411905
4.687000	1.475680
4.688000	1.590667
4.689000	1.682142
4.690000	1.710809
4.691000	1.676344
4.692000	1.610315
4.693000	1.538488
4.694000	1.431553
4.695000	1.319786
4.696000	1.259232
4.697000	1.269539
4.698000	1.336535
4.699000	1.392579
4.700000	1.433807
4.701000	1.432197
4.702000	1.432841
4.703000	1.438317
4.704000	1.461507
4.705000	1.474069
4.706000	1.440249
4.707000	1.410939
4.708000	1.445725
4.709000	1.499192
4.710000	1.542675
4.711000	1.592600
4.712000	1.638981
4.713000	1.662494
4.714000	1.733355
4.715000	1.763310
4.716000	1.778126
4.717000	1.772651
4.718000	1.764598
4.719000	1.750426
4.720000	1.700179
4.721000	1.629963
4.722000	1.575207
4.723000	1.487597
4.724000	1.443148
4.725000	1.483732
4.726000	1.594532
4.727000	1.617401
4.728000	1.644135
4.729000	1.643169
4.730000	1.634472
4.731000	1.598075
4.732000	1.542031
4.733000	1.505634
4.734000	1.505634
4.735000	1.535267
4.736000	1.613214
4.737000	1.710809
4.738000	1.817744
4.739000	1.867669
4.740000	1.829662
4.741000	1.727558
4.742000	1.628030
4.743000	1.534301
4.744000	1.482444
4.745000	1.454743
4.746000	1.403853
4.747000	1.378407
4.748000	1.381950
4.749000	1.422534
4.750000	1.424467
4.751000	1.409328
4.752000	1.420924
4.753000	1.463440
4.754000	1.481155
4.755000	1.490818
4.756000	1.460863
4.757000	1.449912
4.758000	1.460541
4.759000	1.460863
4.760000	1.466017
4.761000	1.472459
4.762000	1.462152
4.763000	1.475035
4.764000	1.485987
4.765000	1.499837
4.766000	1.527215
4.767000	1.603873
4.768000	1.667970
4.769000	1.692127
4.770000	1.695026
4.771000	1.667648
4.772000	1.628352
4.773000	1.597109
4.774000	1.543642
4.775000	1.477290
4.776000	1.450878
4.777000	1.468271
4.778000	1.494361
4.779000	1.500803
4.780000	1.476002
4.781000	1.451845
4.782000	1.467305
4.783000	1.483410
4.784000	1.481799
4.785000	1.516908
4.786000	1.564256
4.787000	1.609671
4.788000	1.618045
4.789000	1.622555
4.790000	1.606128
4.791000	1.597753
4.792000	1.583903
4.793000	1.576495
4.794000	1.579394
4.795000	1.592278
4.796000	1.590023
4.797000	1.572630
4.798000	1.593888
4.799000	1.655086
4.800000	1.696959
4.801000	1.716284
4.802000	1.698891
4.803000	1.671835
4.804000	1.705011
4.805000	1.716606
4.806000	1.711775
4.807000	1.705011
4.808000	1.705655
4.809000	1.670225
4.810000	1.653476
4.811000	1.659273
4.812000	1.584870
4.813000	1.554271
4.814000	1.567154
4.815000	1.580682
4.816000	1.620622
4.817000	1.679243
4.818000	1.764598
4.819000	1.819677
4.820000	1.748494
4.821000	1.659918
4.822000	1.599686
4.823000	1.558780
4.824000	1.488563
4.825000	1.401276
4.826000	1.408040
4.827000	1.466661
4.828000	1.477290
4.829000	1.443792
4.830000	1.383883
4.831000	1.347486
4.832000	1.358759
4.833000	1.406751
4.834000	1.504024
4.835000	1.551372
4.836000	1.555881
4.837000	1.530758
4.838000	1.451200
4.839000	1.390325
4.840000	1.336857
4.841000	1.341366
4.842000	1.398055
4.843000	1.457642
4.844000	1.527537
4.845000	1.564256
4.846000	1.578750
4.847000	1.552338
4.848000	1.529147
4.849000	1.522705
4.850000	1.529791
4.851000	1.502091
4.852000	1.462152
4.853000	1.436706
4.854000	1.450234
4.855000	1.470848
4.856000	1.540098
4.857000	1.566510
4.858000	1.557169
4.859000	1.537844
4.860000	1.508211
4.861000	1.500159
4.862000	1.462796
4.863000	1.435418
4.864000	1.421890
4.865000	1.493717
4.866000	1.617723
4.867000	1.689550
4.868000	1.704367
4.869000	1.768786
4.870000	1.823542
4.871000	1.839324
4.872000	1.838036
4.873000	1.821287
4.874000	1.773617
4.875000	1.723048
4.876000	1.700502
4.877000	1.696314
4.878000	1.636727
4.879000	1.599364
4.880000	1.612248
4.881000	1.673124
4.882000	1.752359
4.883000	1.776194
4.884000	1.745273
4.885000	1.790688
4.886000	1.848021
4.887000	1.895047
4.888000	1.901811
4.889000	1.819677
4.890000	1.684075
4.891000	1.601619
4.892000	1.544286
4.893000	1.510788
4.894000	1.417058
4.895000	1.327838
4.896000	1.282101
4.897000	1.367134
4.898000	1.434129
4.899000	1.422534
4.900000	1.425111
4.901000	1.439283
4.902000	1.460541
4.903000	1.455710
4.904000	1.406107
4.905000	1.279202
4.906000	1.239906
4.907000	1.232820
4.908000	1.249891
4.909000	1.309479
4.910000	1.433807
4.911000	1.575207
4.912000	1.741730
4.913000	1.900200
4.914000	1.944649
4.915000	1.856073
4.916000	1.791976
4.917000	1.807115
4.918000	1.831916
4.919000	1.789722
4.920000	1.710486
4.921000	1.616113
4.922000	1.513687
4.923000	1.412227
4.924000	1.352962
4.925000	1.366490
4.926000	1.403208
4.927000	1.427043
4.928000	1.456354
4.929000	1.456354
4.930000	1.473747
4.931000	1.510788
4.932000	1.620300
4.933000	1.680532
4.934000	1.770396
4.935000	1.856395
4.936000	1.886994
4.937000	1.822898
4.938000	1.681498
4.939000	1.535911
4.940000	1.449912
4.941000	1.400954
4.942000	1.383561
4.943000	1.351029
4.944000	1.285966
4.945000	1.200611
4.946000	1.167757
4.947000	1.218326
4.948000	1.341044
4.949000	1.567154
4.950000	1.722404
4.951000	1.786501
4.952000	1.763310
4.953000	1.708232
4.954000	1.633506
4.955000	1.576173
4.956000	1.524638
4.957000	1.506601
4.958000	1.557492
4.959000	1.576817
4.960000	1.600330
4.961000	1.637693
4.962000	1.704367
4.963000	1.697603
4.964000	1.673446
4.965000	1.617401
4.966000	1.565866
4.967000	1.509822
4.968000	1.535267
4.969000	1.504668
4.970000	1.429298
4.971000	1.398055
4.972000	1.425433
4.973000	1.468593
4.974000	1.485342
4.975000	1.487919
4.976000	1.469238
4.977000	1.461185
4.978000	1.450234
4.979000	1.447979
4.980000	1.503380
4.981000	1.574240
4.982000	1.702434
4.983000	1.784568
4.984000	1.795842
4.985000	1.776838
4.986000	1.755258
4.987000	1.708554
4.988000	1.688906
4.989000	1.674412
4.990000	1.611603
4.991000	1.578750
4.992000	1.587446
4.993000	1.588735
4.994000	1.566188
4.995000	1.542031
4.996000	1.587124
4.997000	1.608383
4.998000	1.595499
4.999000	1.595821
5.000000	1.603873
5.001000	1.608060
5.002000	1.615469
5.003000	1.557492
5.004000	1.494683
5.005000	1.437672
5.006000	1.509822
5.007000	1.627708
5.008000	1.727880
5.009000	1.757512
5.010000	1.738187
5.011000	1.713063
5.012000	1.657019
5.013000	1.516908
5.014000	1.388392
5.015000	1.397411
5.016000	1.499837
5.017000	1.628997
5.018000	1.711453
5.019000	1.734321
5.020000	1.688584
5.021000	1.610959
5.022000	1.477290
5.023000	1.358437
5.024000	1.335891
5.025000	1.381306
5.026000	1.360692
5.027000	1.383561
5.028000	1.416092
5.029000	1.438639
5.030000	1.434129
5.031000	1.422534
5.032000	1.371965
5.033000	1.344909
5.034000	1.372609
5.035000	1.451200
5.036000	1.542031
5.037000	1.619656
5.038000	1.675056
5.039000	1.659596
5.040000	1.566188
5.041000	1.546218
5.042000	1.547507
5.043000	1.613536
5.044000	1.685363
5.045000	1.748494
5.046000	1.818066
5.047000	1.849953
5.048000	1.756868
5.049000	1.614180
5.050000	1.549117
5.051000	1.564256
5.052000	1.555237
5.053000	1.548795
5.054000	1.586480
5.055000	1.615791
5.056000	1.670225
5.057000	1.667970
5.058000	1.624809
5.059000	1.547185
5.060000	1.514975
5.061000	1.545574
5.062000	1.585192
5.063000	1.561357
5.064000	1.499192
5.065000	1.479545
5.066000	1.502091
5.067000	1.584225
5.068000	1.656053
5.069000	1.769430
5.070000	1.865092
5.071000	1.903099
5.072000	1.839969
5.073000	1.681820
5.074000	1.514975
5.075000	1.360370
5.076000	1.293696
5.077000	1.294340
5.078000	1.294018
5.079000	1.310767
5.080000	1.338145
5.081000	1.315921
5.082000	1.319142
5.083000	1.381628
5.084000	1.456354
5.085000	1.551050
5.086000	1.625131
5.087000	1.642525
5.088000	1.598720
5.089000	1.557814
5.090000	1.556847
5.091000	1.548473
5.092000	1.487919
5.093000	1.426721
5.094000	1.360692
5.095000	1.374864
5.096000	1.421890
5.097000	1.450556
5.098000	1.486953
5.099000	1.489852
5.100000	1.507245
5.101000	1.517230
5.102000	1.481477
5.103000	1.505634
5.104000	1.555559
5.105000	1.608383
5.106000	1.664427
5.107000	1.703078
5.108000	1.737865
5.109000	1.767175
5.110000	1.770396
5.111000	1.715640
5.112000	1.599364
5.113000	1.523672
5.114000	1.503380
5.115000	1.473425
5.116000	1.489852
5.117000	1.512720
5.118000	1.523672
5.119000	1.515297
5.120000	1.485342
5.121000	1.455710
5.122000	1.449268
5.123000	1.470848
5.124000	1.522061
5.125000	1.663461
5.126000	1.780381
5.127000	1.810980
5.128000	1.746239
5.129000	1.635116
5.130000	1.502413
5.131000	1.424789
5.132000	1.394190
5.133000	1.377441
5.134000	1.362302
5.135000	1.390325
5.136000	1.413515
5.137000	1.415770
5.138000	1.465050
5.139000	1.546540
5.140000	1.617401
5.141000	1.648644
5.142000	1.632218
5.143000	1.573918
5.144000	1.473425
5.145000	1.358759
5.146000	1.338145
5.147000	1.355216
5.148000	1.427365
5.149000	1.550406
5.150000	1.672157
5.151000	1.704045
5.152000	1.691483
5.153000	1.646068
5.154000	1.560713
5.155000	1.485020
5.156000	1.573918
5.157000	1.677955
5.158000	1.730134
5.159000	1.768141
5.160000	1.737542
5.161000	1.677633
5.162000	1.634150
5.163000	1.601941
5.164000	1.594210
5.165000	1.517552
5.166000	1.506923
5.167000	1.496938
5.168000	1.525926
5.169000	1.586802
5.170000	1.641558
5.171000	1.699213
5.172000	1.739475
5.173000	1.725303
5.174000	1.718217
5.175000	1.719183
5.176000	1.669580
5.177000	1.602585
5.178000	1.522383
5.179000	1.525604
5.180000	1.556525
5.181000	1.606450
5.182000	1.661850
5.183000	1.679243
5.184000	1.663461
5.185000	1.665393
5.186000	1.621588
5.187000	1.564900
5.188000	1.497260
5.189000	1.442182
5.190000	1.383883
5.191000	1.392579
5.192000	1.416736
5.193000	1.429298
5.194000	1.433807
5.195000	1.445725
5.196000	1.447335
5.197000	1.474391
5.198000	1.510788
5.199000	1.567799
5.200000	1.542675
5.201000	1.542353
5.202000	1.552660
5.203000	1.503058
5.204000	1.493073
5.205000	1.483088
5.206000	1.436706
5.207000	1.368744
5.208000	1.364235
5.209000	1.512398
5.210000	1.684719
5.211000	1.801961
5.212000	1.897946
5.213000	1.924357
5.214000	1.909863
5.215000	1.751715
5.216000	1.550406
5.217000	1.425111
5.218000	1.358437
5.219000	1.378085
5.220000	1.418669
5.221000	1.540743
5.222000	1.653798
5.223000	1.704367
5.224000	1.733355
5.225000	1.758479
5.226000	1.735932
5.227000	1.671513
5.228000	1.599686
5.229000	1.560713
5.230000	1.555237
5.231000	1.573596
5.232000	1.608383
5.233000	1.643813
5.234000	1.656375
5.235000	1.635761
5.236000	1.628030
5.237000	1.629641
5.238000	1.635438
5.239000	1.582293
5.240000	1.500159
5.241000	1.521417
5.242000	1.589379
5.243000	1.667326
5.244000	1.666360
5.245000	1.548151
5.246000	1.495327
5.247000	1.511110
5.248000	1.499192
5.249000	1.458931
5.250000	1.449912
5.251000	1.477290
5.252000	1.585192
5.253000	1.684397
5.254000	1.669258
5.255000	1.652187
5.256000	1.639948
5.257000	1.647678
5.258000	1.631573
5.259000	1.574563
5.260000	1.576173
5.261000	1.594855
5.262000	1.597753
5.263000	1.547185
5.264000	1.466661
5.265000	1.427365
5.266000	1.463762
5.267000	1.460863
5.268000	1.418347
5.269000	1.407396
5.270000	1.402242
5.271000	1.399987
5.272000	1.383561
5.273000	1.422534
5.274000	1.516586
5.275000	1.654764
5.276000	1.710164
5.277000	1.739797
5.278000	1.770718
5.279000	1.737542
5.280000	1.658951
5.281000	1.541387
5.282000	1.418991
5.283000	1.354250
5.284000	1.370999
5.285000	1.411583
5.286000	1.459897
5.287000	1.504668
5.288000	1.511754
5.289000	1.561679
5.290000	1.590023
5.291000	1.579394
5.292000	1.568765
5.293000	1.588091
5.294000	1.609671
5.295000	1.631573
5.296000	1.647356
5.297000	1.620944
5.298000	1.601619
5.299000	1.617401
5.300000	1.627386
5.301000	1.688584
5.302000	1.702434
5.303000	1.671191
5.304000	1.637693
5.305000	1.626420
5.306000	1.643491
5.307000	1.705655
5.308000	1.708232
5.309000	1.653798
5.310000	1.602907
5.311000	1.607738
5.312000	1.594855
5.313000	1.578750
5.314000	1.505956
5.315000	1.453133
5.316000	1.475680
5.317000	1.498870
5.318000	1.500481
5.319000	1.520451
5.320000	1.520129
5.321000	1.536878
5.322000	1.598398
5.323000	1.622555
5.324000	1.563933
5.325000	1.481477
5.326000	1.484054
5.327000	1.472459
5.328000	1.445081
5.329000	1.494361
5.330000	1.572308
5.331000	1.617401
5.332000	1.615469
5.333000	1.595499
5.334000	1.591956
5.335000	1.539454
5.336000	1.466661
5.337000	1.436706
5.338000	1.442826
5.339000	1.443148
5.340000	1.442182
5.341000	1.451522
5.342000	1.496616
5.343000	1.556525
5.344000	1.592922
5.345000	1.629319
5.346000	1.643169
5.347000	1.600974
5.348000	1.510466
5.349000	1.431231
5.350000	1.440571
5.351000	1.486309
5.352000	1.478578
5.353000	1.486953
5.354000	1.514331
5.355000	1.562967
5.356000	1.582293
5.357000	1.585514
5.358000	1.609993
5.359000	1.619978
5.360000	1.655408
5.361000	1.587768
5.362000	1.524960
5.363000	1.498870
5.364000	1.439605
5.365000	1.354894
5.366000	1.296595
5.367000	1.330093
5.368000	1.478901
5.369000	1.645745
5.370000	1.773939
5.371000	1.845444
5.372000	1.854463
5.373000	1.819354
5.374000	1.707910
5.375000	1.617079
5.376000	1.544608
5.377000	1.501125
5.378000	1.475357
5.379000	1.516263
5.380000	1.553626
5.381000	1.553949
5.382000	1.628997
5.383000	1.712097
5.384000	1.738831
5.385000	1.701468
5.386000	1.609671
5.387000	1.493717
5.388000	1.374864
5.389000	1.321396
5.390000	1.294663
5.391000	1.307224
5.392000	1.359726
5.393000	1.427688
5.394000	1.440571
5.395000	1.458931
5.396000	1.523672
5.397000	1.609027
5.398000	1.694060
5.399000	1.753003
5.400000	1.784890
5.401000	1.759123
5.402000	1.695670
5.403000	1.557814
5.404000	1.441215
5.405000	1.408362
5.406000	1.368422
5.407000	1.323329
5.408000	1.322363
5.409000	1.366812
5.410000	1.450878
5.411000	1.525282
5.412000	1.570053
5.413000	1.650577
5.414000	1.694060
5.415000	1.719505
5.416000	1.730778
5.417000	1.713063
5.418000	1.692449
5.419000	1.672801
5.420000	1.585192
5.421000	1.442182
5.422000	1.327194
5.423000	1.272760
5.424000	1.275659
5.425000	1.319464
5.426000	1.396122
5.427000	1.512076
5.428000	1.604839
5.429000	1.647034
5.430000	1.613536
5.431000	1.561035
5.432000	1.542353
5.433000	1.525604
5.434000	1.555881
5.435000	1.552338
5.436000	1.588413
5.437000	1.690839
5.438000	1.774905
5.439000	1.845122
5.440000	1.906964
5.441000	1.881197
5.442000	1.786179
5.443000	1.628352
5.444000	1.426077
5.445000	1.347164
5.446000	1.308513
5.447000	1.310123
5.448000	1.332025
5.449000	1.362947
5.450000	1.372931
5.451000	1.417380
5.452000	1.436384
5.453000	1.404819
5.454000	1.372287
5.455000	1.360370
5.456000	1.388070
5.457000	1.454743
5.458000	1.537200
5.459000	1.618367
5.460000	1.640270
5.461000	1.631895
5.462000	1.642202
5.463000	1.616757
5.464000	1.613858
5.465000	1.574885
5.466000	1.527215
5.467000	1.475680
5.468000	1.420279
5.469000	1.359403
5.470000	1.345231
5.471000	1.394190
5.472000	1.487275
5.473000	1.589701
5.474000	1.612892
5.475000	1.592600
5.476000	1.593888
5.477000	1.562645
5.478000	1.545252
5.479000	1.509177
5.480000	1.513043
5.481000	1.588091
5.482000	1.698247
5.483000	1.840935
5.484000	1.953990
5.485000	1.974282
5.486000	1.868635
5.487000	1.720471
5.488000	1.592922
5.489000	1.386137
5.490000	1.245382
5.491000	1.295629
5.492000	1.416736
5.493000	1.504990
5.494000	1.569409
5.495000	1.575851
5.496000	1.519807
5.497000	1.511110
5.498000	1.533657
5.499000	1.598720
5.500000	1.628674
5.501000	1.648966
5.502000	1.650577
5.503000	1.614180
5.504000	1.581971
5.505000	1.535267
5.506000	1.491462
5.507000	1.527859
5.508000	1.591634
5.509000	1.678921
5.510000	1.724337
5.511000	1.760411
5.512000	1.716606
5.513000	1.608383
5.514000	1.500481
5.515000	1.432519
5.516000	1.367778
5.517000	1.345876
5.518000	1.368744
5.519000	1.446369
5.520000	1.491462
5.521000	1.501125
5.522000	1.567154
5.523000	1.628997
5.524000	1.637371
5.525000	1.639304
5.526000	1.657663
5.527000	1.684397
5.528000	1.730134
5.529000	1.694704
5.530000	1.709520
5.531000	1.714996
5.532000	1.763310
5.533000	1.726913
5.534000	1.673446
5.535000	1.630285
5.536000	1.613536
5.537000	1.625776
5.538000	1.604517
5.539000	1.531080
5.540000	1.458286
5.541000	1.449912
5.542000	1.449590
5.543000	1.417380
5.544000	1.485342
5.545000	1.598075
5.546000	1.720471
5.547000	1.771684
5.548000	1.743662
5.549000	1.688906
5.550000	1.605484
5.551000	1.505312
5.552000	1.433163
5.553000	1.434451
5.554000	1.471492
5.555000	1.466661
5.556000	1.469882
5.557000	1.534301
5.558000	1.552982
5.559000	1.585836
5.560000	1.586480
5.561000	1.536878
5.562000	1.531080
5.563000	1.538166
5.564000	1.552982
5.565000	1.581004
5.566000	1.614502
5.567000	1.657985
5.568000	1.655408
5.569000	1.649289
5.570000	1.704045
5.571000	1.761700
5.572000	1.733999
5.573000	1.663139
5.574000	1.609993
5.575000	1.623199
5.576000	1.682786
5.577000	1.724981
5.578000	1.725947
5.579000	1.671513
5.580000	1.668292
5.581000	1.692771
5.582000	1.743662
5.583000	1.785535
5.584000	1.780703
5.585000	1.781347
5.586000	1.753325
5.587000	1.650577
5.588000	1.497582
5.589000	1.413193
5.590000	1.393223
5.591000	1.376152
5.592000	1.404175
5.593000	1.485987
5.594000	1.536233
5.595000	1.571986
5.596000	1.644135
5.597000	1.686329
5.598000	1.713707
5.599000	1.686007
5.600000	1.614502
5.601000	1.545252
5.602000	1.466983
5.603000	1.493717
5.604000	1.502736
5.605000	1.435096
5.606000	1.345876
5.607000	1.295951
5.608000	1.271794
5.609000	1.262453
5.610000	1.289831
5.611000	1.372609
5.612000	1.474391
5.613000	1.572308
5.614000	1.715318
5.615000	1.801961
5.616000	1.801961
5.617000	1.750748
5.618000	1.683753
5.619000	1.653154
5.620000	1.715640
5.621000	1.791976
5.622000	1.795519
5.623000	1.796486
5.624000	1.773295
5.625000	1.656053
5.626000	1.539454
5.627000	1.438317
5.628000	1.394512
5.629000	1.433485
5.630000	1.435096
5.631000	1.406751
5.632000	1.393223
5.633000	1.396122
5.634000	1.429620
5.635000	1.462152
5.636000	1.447335
5.637000	1.458609
5.638000	1.490496
5.639000	1.496938
5.640000	1.481477
5.641000	1.507245
5.642000	1.559746
5.643000	1.602907
5.644000	1.617079
5.645000	1.521417
5.646000	1.516908
5.647000	1.566188
5.648000	1.561679
5.649000	1.532690
5.650000	1.518518
5.651000	1.526571
5.652000	1.523350
5.653000	1.527215
5.654000	1.575207
5.655000	1.656375
5.656000	1.705333
5.657000	1.699535
5.658000	1.661528
5.659000	1.644457
5.660000	1.608705
5.661000	1.575529
5.662000	1.591312
5.663000	1.643813
5.664000	1.662494
5.665000	1.737865
5.666000	1.794553
5.667000	1.764598
5.668000	1.710809
5.669000	1.581649
5.670000	1.529469
5.671000	1.483732
5.672000	1.475680
5.673000	1.496938
5.674000	1.525926
5.675000	1.524316
5.676000	1.497260
5.677000	1.469882
5.678000	1.448946
5.679000	1.479867
5.680000	1.542997
5.681000	1.568443
5.682000	1.587768
5.683000	1.603873
5.684000	1.603551
5.685000	1.581327
5.686000	1.537844
5.687000	1.476324
5.688000	1.451200
5.689000	1.441538
5.690000	1.435096
5.691000	1.484054
5.692000	1.628030
5.693000	1.746239
5.694000	1.749138
5.695000	1.706621
5.696000	1.618045
5.697000	1.475357
5.698000	1.307224
5.699000	1.215749
5.700000	1.260843
5.701000	1.369711
5.702000	1.478578
5.703000	1.574885
5.704000	1.585192
5.705000	1.545896
5.706000	1.541387
5.707000	1.597431
5.708000	1.668936
5.709000	1.756224
5.710000	1.856395
5.711000	1.903099
5.712000	1.896979
5.713000	1.812590
5.714000	1.721438
5.715000	1.666360
5.716000	1.554915
5.717000	1.471814
5.718000	1.432519
5.719000	1.374542
5.720000	1.416736
5.721000	1.499837
5.722000	1.526893
5.723000	1.554593
5.724000	1.592922
5.725000	1.595821
5.726000	1.620622
5.727000	1.725625
5.728000	1.742052
5.729000	1.674090
5.730000	1.637049
5.731000	1.531402
5.732000	1.399665
5.733000	1.292730
5.734000	1.273726
5.735000	1.349741
5.736000	1.499515
5.737000	1.665071
5.738000	1.738831
5.739000	1.652832
5.740000	1.588091
5.741000	1.558136
5.742000	1.508533
5.743000	1.501447
5.744000	1.425433
5.745000	1.359726
5.746000	1.307546
5.747000	1.279846
5.748000	1.329127
5.749000	1.491784
5.750000	1.622877
5.751000	1.664427
5.752000	1.723370
5.753000	1.698891
5.754000	1.678277
5.755000	1.677955
5.756000	1.719183
5.757000	1.717573
5.758000	1.649289
5.759000	1.564256
5.760000	1.487919
5.761000	1.449590
5.762000	1.410939
5.763000	1.401920
5.764000	1.422856
5.765000	1.468593
5.766000	1.531402
5.767000	1.532046
5.768000	1.520129
5.769000	1.541065
5.770000	1.595177
5.771000	1.598398
5.772000	1.568121
5.773000	1.504024
5.774000	1.510466
5.775000	1.626420
5.776000	1.700502
5.777000	1.775550
5.778000	1.789078
5.779000	1.766531
5.780000	1.706299
5.781000	1.626098
5.782000	1.588091
5.783000	1.596143
5.784000	1.647356
5.785000	1.660562
5.786000	1.606772
5.787000	1.534623
5.788000	1.483732
5.789000	1.471170
5.790000	1.485342
5.791000	1.523672
5.792000	1.590023
5.793000	1.589379
5.794000	1.613214
5.795000	1.595177
5.796000	1.556203
5.797000	1.534623
5.798000	1.488885
5.799000	1.508533
5.800000	1.602585
5.801000	1.783602
5.802000	1.969451
5.803000	2.010035
5.804000	1.885706
5.805000	1.747205
5.806000	1.573596
5.807000	1.404497
5.808000	1.238618
5.809000	1.218648
5.810000	1.233787
5.811000	1.330093
5.812000	1.458609
5.813000	1.531724
5.814000	1.511110
5.815000	1.434129
5.816000	1.413515
5.817000	1.424144
5.818000	1.454743
5.819000	1.481155
5.820000	1.509499
5.821000	1.556525
5.822000	1.592278
5.823000	1.657985
5.824000	1.684719
5.825000	1.749460
5.826000	1.874755
5.827000	1.980080
5.828000	1.955923
5.829000	1.782314
5.830000	1.588091
5.831000	1.399021
5.832000	1.343299
5.833000	1.397733
5.834000	1.438317
5.835000	1.459253
5.836000	1.490174
5.837000	1.529791
5.838000	1.609671
5.839000	1.597109
5.840000	1.542353
5.841000	1.479867
5.842000	1.488563
5.843000	1.551050
5.844000	1.577139
5.845000	1.614502
5.846000	1.613536
5.847000	1.602263
5.848000	1.592922
5.849000	1.599042
5.850000	1.670869
5.851000	1.753969
5.852000	1.804860
5.853000	1.800995
5.854000	1.676667
5.855000	1.462152
5.856000	1.351351
5.857000	1.288865
5.858000	1.274048
5.859000	1.308835
5.860000	1.438961
5.861000	1.571020
5.862000	1.653476
5.863000	1.697925
5.864000	1.682142
5.865000	1.606450
5.866000	1.533012
5.867000	1.522383
5.868000	1.592278
5.869000	1.602263
5.870000	1.590989
5.871000	1.571020
5.872000	1.564578
5.873000	1.521739
5.874000	1.500481
5.875000	1.549439
5.876000	1.600008
5.877000	1.642525
5.878000	1.691805
5.879000	1.755580
5.880000	1.798096
5.881000	1.739475
5.882000	1.678921
5.883000	1.573274
5.884000	1.485987
5.885000	1.421568
5.886000	1.423822
5.887000	1.438961
5.888000	1.471492
5.889000	1.537844
5.890000	1.615469
5.891000	1.650899
5.892000	1.627708
5.893000	1.610637
5.894000	1.596143
5.895000	1.620300
5.896000	1.633506
5.897000	1.668292
5.898000	1.658629
5.899000	1.668292
5.900000	1.699213
5.901000	1.712741
5.902000	1.742052
5.903000	1.724659
5.904000	1.635116
5.905000	1.524316
5.906000	1.458609
5.907000	1.403208
5.908000	1.410939
5.909000	1.417703
5.910000	1.420924
5.911000	1.457964
5.912000	1.547829
5.913000	1.613536
5.914000	1.649289
5.915000	1.600008
5.916000	1.505312
5.917000	1.465695
5.918000	1.457964
5.919000	1.419957
5.920000	1.420601
5.921000	1.504346
5.922000	1.599364
5.923000	1.610637
5.924000	1.582293
5.925000	1.536233
5.926000	1.484698
5.927000	1.435096
5.928000	1.468271
5.929000	1.519162
5.930000	1.584225
5.931000	1.636405
5.932000	1.749138
5.933000	1.836748
5.934000	1.894725
5.935000	1.856073
5.936000	1.698891
5.937000	1.606128
5.938000	1.559102
5.939000	1.453455
5.940000	1.348130
5.941000	1.329771
5.942000	1.336213
5.943000	1.361014
5.944000	1.410939
5.945000	1.440893
5.946000	1.493717
5.947000	1.562323
5.948000	1.675056
5.949000	1.708232
5.950000	1.731423
5.951000	1.685363
5.952000	1.622233
5.953000	1.569409
5.954000	1.555559
5.955000	1.569087
5.956000	1.597753
5.957000	1.594532
5.958000	1.606128
5.959000	1.611926
5.960000	1.582937
5.961000	1.472137
5.962000	1.344587
5.963000	1.290797
5.964000	1.355538
5.965000	1.474391
5.966000	1.622233
5.967000	1.703078
5.968000	1.748172
5.969000	1.752359
5.970000	1.775550
5.971000	1.711131
5.972000	1.585836
5.973000	1.494361
5.974000	1.422534
5.975000	1.373576
5.976000	1.455066
5.977000	1.610315
5.978000	1.858328
5.979000	1.944649
5.980000	1.842867
5.981000	1.690195
5.982000	1.594210
5.983000	1.495972
5.984000	1.389358
5.985000	1.391291
5.986000	1.361014
5.987000	1.349419
5.988000	1.392579
5.989000	1.426077
5.990000	1.458931
5.991000	1.568121
5.992000	1.636727
5.993000	1.705333
5.994000	1.778126
5.995000	1.788755
5.996000	1.716928
5.997000	1.669580
5.998000	1.702112
5.999000	1.722726
6.000000	1.684397
6.001000	1.650577
6.002000	1.592278
6.003000	1.527537
6.004000	1.466983
6.005000	1.445081
6.006000	1.434774
6.007000	1.444436
6.008000	1.531724
6.009000	1.590023
6.010000	1.551050
6.011000	1.495327
6.012000	1.500481
6.013000	1.527537
6.014000	1.599364
6.015000	1.677633
6.016000	1.634150
6.017000	1.552982
6.018000	1.513687
6.019000	1.488563
6.020000	1.486953
6.021000	1.502413
6.022000	1.499837
6.023000	1.493717
6.024000	1.494039
6.025000	1.495972
6.026000	1.466017
6.027000	1.472137
6.028000	1.510788
6.029000	1.589057
6.030000	1.664427
6.031000	1.660562
6.032000	1.617723
6.033000	1.568121
6.034000	1.528825
6.035000	1.467627
6.036000	1.464084
6.037000	1.464084
6.038000	1.479223
6.039000	1.567799
6.040000	1.684719
6.041000	1.713063
6.042000	1.709842
6.043000	1.716284
6.044000	1.704367
6.045000	1.687940
6.046000	1.691483
6.047000	1.642525
6.048000	1.546218
6.049000	1.494039
6.050000	1.512720
6.051000	1.501447
6.052000	1.495649
6.053000	1.479867
6.054000	1.456998
6.055000	1.449590
6.056000	1.448302
6.057000	1.485342
6.058000	1.546862
6.059000	1.621910
6.060000	1.652509
6.061000	1.626420
6.062000	1.527859
6.063000	1.481799
6.064000	1.508533
6.065000	1.546540
6.066000	1.623521
6.067000	1.670547
6.068000	1.697925
6.069000	1.698569
6.070000	1.679243
6.071000	1.655086
6.072000	1.598075
6.073000	1.527537
6.074000	1.504346
6.075000	1.493717
6.076000	1.532046
6.077000	1.626098
6.078000	1.668614
6.079000	1.684397
6.080000	1.666037
6.081000	1.660884
6.082000	1.654764
6.083000	1.607738
6.084000	1.515619
6.085000	1.398055
6.086000	1.374864
6.087000	1.401598
6.088000	1.423500
6.089000	1.466661
6.090000	1.473103
6.091000	1.511110
6.092000	1.569731
6.093000	1.597753
6.094000	1.560713
6.095000	1.551372
6.096000	1.585514
6.097000	1.631895
6.098000	1.720471
6.099000	1.760733
6.100000	1.758479
6.101000	1.791332
6.102000	1.823542
6.103000	1.818710
6.104000	1.743340
6.105000	1.655408
6.106000	1.552016
6.107000	1.437028
6.108000	1.379051
6.109000	1.378085
6.110000	1.381628
6.111000	1.380984
6.112000	1.408040
6.113000	1.393223
6.114000	1.370677
6.115000	1.437672
6.116000	1.549761
6.117000	1.640270
6.118000	1.700824
6.119000	1.726591
6.120000	1.718217
6.121000	1.649289
6.122000	1.616113
6.123000	1.633184
6.124000	1.605162
6.125000	1.528503
6.126000	1.492106
6.127000	1.444759
6.128000	1.427688
6.129000	1.451522
6.130000	1.472137
6.131000	1.502736
6.132000	1.494683
6.133000	1.536878
6.134000	1.556525
6.135000	1.536878
6.136000	1.500803
6.137000	1.474713
6.138000	1.446047
6.139000	1.422856
6.140000	1.468593
6.141000	1.517230
6.142000	1.628997
6.143000	1.762022
6.144000	1.840613
6.145000	1.823220
6.146000	1.781992
6.147000	1.753325
6.148000	1.707588
6.149000	1.633184
6.150000	1.566510
6.151000	1.519162
6.152000	1.489852
6.153000	1.532690
6.154000	1.578106
6.155000	1.601296
6.156000	1.714030
6.157000	1.834815
6.158000	1.830950
6.159000	1.781025
6.160000	1.710164
6.161000	1.595821
6.162000	1.421568
6.163000	1.312056
6.164000	1.324295
6.165000	1.370677
6.166000	1.351029
6.167000	1.378729
6.168000	1.426399
6.169000	1.470848
6.170000	1.527859
6.171000	1.645745
6.172000	1.686007
6.173000	1.694382
6.174000	1.668936
6.175000	1.636405
6.176000	1.600974
6.177000	1.554271
6.178000	1.446691
6.179000	1.402564
6.180000	1.425111
6.181000	1.494039
6.182000	1.542353
6.183000	1.598075
6.184000	1.647678
6.185000	1.698891
6.186000	1.700824
6.187000	1.642525
6.188000	1.548151
6.189000	1.454099
6.190000	1.408684
6.191000	1.408362
6.192000	1.472137
6.193000	1.545252
6.194000	1.562967
6.195000	1.498548
6.196000	1.424144
6.197000	1.370033
6.198000	1.353284
6.199000	1.411583
6.200000	1.514331
6.201000	1.603229
6.202000	1.723370
6.203000	1.793909
6.204000	1.801961
6.205000	1.765565
6.206000	1.723692
6.207000	1.654442
6.208000	1.609993
6.209000	1.608383
6.210000	1.646712
6.211000	1.615791
6.212000	1.578106
6.213000	1.523994
6.214000	1.522061
6.215000	1.556203
6.216000	1.569731
6.217000	1.541387
6.218000	1.520451
6.219000	1.561035
6.220000	1.519484
6.221000	1.469560
6.222000	1.470526
6.223000	1.505634
6.224000	1.566510
6.225000	1.620300
6.226000	1.664427
6.227000	1.668614
6.228000	1.617079
6.229000	1.555237
6.230000	1.537522
6.231000	1.557169
6.232000	1.567477
6.233000	1.548473
6.234000	1.554593
6.235000	1.573918
6.236000	1.495327
6.237000	1.383238
6.238000	1.366490
6.239000	1.424144
6.240000	1.554593
6.241000	1.635438
6.242000	1.642202
6.243000	1.644779
6.244000	1.657341
6.245000	1.621588
6.246000	1.579716
6.247000	1.528181
6.248000	1.513365
6.249000	1.551050
6.250000	1.594855
6.251000	1.572308
6.252000	1.505956
6.253000	1.494683
6.254000	1.500803
6.255000	1.504990
6.256000	1.487919
6.257000	1.535267
6.258000	1.581971
6.259000	1.647678
6.260000	1.696636
6.261000	1.759123
6.262000	1.752359
6.263000	1.695348
6.264000	1.572630
6.265000	1.484376
6.266000	1.484054
6.267000	1.616435
6.268000	1.763954
6.269000	1.909219
6.270000	1.962042
6.271000	1.946582
6.272000	1.887961
6.273000	1.703400
6.274000	1.509177
6.275000	1.372609
6.276000	1.310123
6.277000	1.332992
6.278000	1.374220
6.279000	1.393223
6.280000	1.389680
6.281000	1.399665
6.282000	1.439927
6.283000	1.511432
6.284000	1.535911
6.285000	1.482444
6.286000	1.438961
6.287000	1.427688
6.288000	1.390325
6.289000	1.374220
6.290000	1.412871
6.291000	1.572630
6.292000	1.736576
6.293000	1.813879
6.294000	1.856717
6.295000	1.831594
6.296000	1.768141
6.297000	1.670225
6.298000	1.587124
6.299000	1.552338
6.300000	1.596465
6.301000	1.659273
6.302000	1.638659
6.303000	1.598720
6.304000	1.546540
6.305000	1.518196
6.306000	1.565222
6.307000	1.634794
6.308000	1.686974
6.309000	1.695026
6.310000	1.658951
6.311000	1.590667
6.312000	1.523994
6.313000	1.446047
6.314000	1.384205
6.315000	1.340400
6.316000	1.406429
6.317000	1.436384
6.318000	1.402886
6.319000	1.377441
6.320000	1.374220
6.321000	1.396766
6.322000	1.409006
6.323000	1.422212
6.324000	1.445081
6.325000	1.450878
6.326000	1.504668
6.327000	1.625131
6.328000	1.719183
6.329000	1.779415
6.330000	1.851242
6.331000	1.857362
6.332000	1.751393
6.333000	1.686974
6.334000	1.612892
6.335000	1.560068
6.336000	1.542997
6.337000	1.552982
6.338000	1.635761
6.339000	1.717250
6.340000	1.754291
6.341000	1.727880
6.342000	1.613858
6.343000	1.502091
6.344000	1.464406
6.345000	1.481155
6.346000	1.515297
6.347000	1.519807
6.348000	1.552338
6.349000	1.543964
6.350000	1.553304
6.351000	1.549439
6.352000	1.487919
6.353000	1.424467
6.354000	1.448302
6.355000	1.508533
6.356000	1.523027
6.357000	1.565222
6.358000	1.533334
6.359000	1.505312
6.360000	1.504990
6.361000	1.530436
6.362000	1.671835
6.363000	1.796164
6.364000	1.777804
6.365000	1.720149
6.366000	1.686007
6.367000	1.692127
6.368000	1.708232
6.369000	1.733999
6.370000	1.722726
6.371000	1.656053
6.372000	1.542031
6.373000	1.428654
6.374000	1.339756
6.375000	1.305936
6.376000	1.304970
6.377000	1.418991
6.378000	1.581971
6.379000	1.714996
6.380000	1.782958
6.381000	1.776194
6.382000	1.752037
6.383000	1.668292
6.384000	1.546540
6.385000	1.427365
6.386000	1.412549
6.387000	1.535589
6.388000	1.676989
6.389000	1.761700
6.390000	1.819032
6.391000	1.821609
6.392000	1.758479
6.393000	1.600330
6.394000	1.422856
6.395000	1.285966
6.396000	1.266962
6.397000	1.281135
6.398000	1.302071
6.399000	1.370355
6.400000	1.425755
6.401000	1.471492
6.402000	1.576495
6.403000	1.644779
6.404000	1.619012
6.405000	1.639626
6.406000	1.667326
6.407000	1.690195
6.408000	1.688584
6.409000	1.657341
6.410000	1.626742
6.411000	1.616435
6.412000	1.611603
6.413000	1.587446
6.414000	1.528825
6.415000	1.477290
6.416000	1.454743
6.417000	1.439927
6.418000	1.411905
6.419000	1.418669
6.420000	1.463762
6.421000	1.535589
6.422000	1.590023
6.423000	1.656053
6.424000	1.691805
6.425000	1.675056
6.426000	1.652509
6.427000	1.573596
6.428000	1.479223
6.429000	1.425111
6.430000	1.449590
6.431000	1.521417
6.432000	1.531080
6.433000	1.571342
6.434000	1.678277
6.435000	1.802606
6.436000	1.787789
6.437000	1.689550
6.438000	1.610315
6.439000	1.554271
6.440000	1.502736
6.441000	1.476968
6.442000	1.475680
6.443000	1.540421
6.444000	1.623843
6.445000	1.712419
6.446000	1.796164
6.447000	1.816134
6.448000	1.788111
6.449000	1.763954
6.450000	1.721438
6.451000	1.607738
6.452000	1.472781
6.453000	1.392257
6.454000	1.355860
6.455000	1.345553
6.456000	1.337823
6.457000	1.384849
6.458000	1.467305
6.459000	1.582615
6.460000	1.782314
6.461000	1.861871
6.462000	1.798418
6.463000	1.654764
6.464000	1.478578
6.465000	1.340078
6.466000	1.326550
6.467000	1.351673
6.468000	1.354894
6.469000	1.399987
6.470000	1.526248
6.471000	1.551372
6.472000	1.572630
6.473000	1.591956
6.474000	1.619012
6.475000	1.638659
6.476000	1.613536
6.477000	1.600330
6.478000	1.607094
6.479000	1.614502
6.480000	1.612248
6.481000	1.577461
6.482000	1.576495
6.483000	1.594532
6.484000	1.558458
6.485000	1.505634
6.486000	1.456676
6.487000	1.493395
6.488000	1.570053
6.489000	1.646390
6.490000	1.685363
6.491000	1.716928
6.492000	1.735610
6.493000	1.750104
6.494000	1.691161
6.495000	1.635438
6.496000	1.655408
6.497000	1.647034
6.498000	1.609349
6.499000	1.564900
6.500000	1.557169
6.501000	1.630285
6.502000	1.682786
6.503000	1.637371
6.504000	1.551050
6.505000	1.542353
6.506000	1.507889
6.507000	1.469882
6.508000	1.477934
6.509000	1.508533
6.510000	1.596143
6.511000	1.682142
6.512000	1.689872
6.513000	1.631895
6.514000	1.612892
6.515000	1.550728
6.516000	1.456998
6.517000	1.382916
6.518000	1.290475
6.519000	1.229599
6.520000	1.227023
6.521000	1.270505
6.522000	1.353284
6.523000	1.500159
6.524000	1.597753
6.525000	1.657019
6.526000	1.638015
6.527000	1.547185
6.528000	1.501769
6.529000	1.504346
6.530000	1.528181
6.531000	1.627064
6.532000	1.805182
6.533000	1.941428
6.534000	2.061892
6.535000	2.090236
6.536000	2.086693
6.537000	1.983301
6.538000	1.792943
6.539000	1.491140
6.540000	1.281135
6.541000	1.234431
6.542000	1.293374
6.543000	1.382916
6.544000	1.366812
6.545000	1.311734
6.546000	1.253112
6.547000	1.255045
6.548000	1.308835
6.549000	1.427043
6.550000	1.596465
6.551000	1.714030
6.552000	1.790044
6.553000	1.780381
6.554000	1.750426
6.555000	1.844478
6.556000	2.036446
6.557000	2.152723
6.558000	2.165606
6.559000	2.078319
6.560000	1.943361
6.561000	1.751715
6.562000	1.486953
6.563000	1.301749
6.564000	1.223158
6.565000	1.187083
6.566000	1.224446
6.567000	1.320752
6.568000	1.405463
6.569000	1.509822
6.570000	1.578750
6.571000	1.569409
6.572000	1.510144
6.573000	1.444759
6.574000	1.349096
6.575000	1.314954
6.576000	1.345231
6.577000	1.390647
6.578000	1.439927
6.579000	1.462474
6.580000	1.500481
6.581000	1.563933
6.582000	1.612892
6.583000	1.632540
6.584000	1.649933
6.585000	1.671191
6.586000	1.652509
6.587000	1.676344
6.588000	1.673446
6.589000	1.646712
6.590000	1.640592
6.591000	1.628997
6.592000	1.633184
6.593000	1.646390
6.594000	1.697281
6.595000	1.686329
6.596000	1.625776
6.597000	1.505634
6.598000	1.404819
6.599000	1.378085
6.600000	1.451200
6.601000	1.529147
6.602000	1.624165
6.603000	1.713385
6.604000	1.786501
6.605000	1.813235
6.606000	1.781669
6.607000	1.717895
6.608000	1.592600
6.609000	1.484698
6.610000	1.444759
6.611000	1.435740
6.612000	1.427365
6.613000	1.378085
6.614000	1.324295
6.615000	1.343299
6.616000	1.432197
6.617000	1.578428
6.618000	1.753325
6.619000	1.911151
6.620000	1.943361
6.621000	1.886672
6.622000	1.765887
6.623000	1.602907
6.624000	1.514331
6.625000	1.520129
6.626000	1.571986
6.627000	1.667970
6.628000	1.701146
6.629000	1.649289
6.630000	1.508855
6.631000	1.361658
6.632000	1.256333
6.633000	1.204476
6.634000	1.213173
6.635000	1.391935
6.636000	1.575207
6.637000	1.696636
6.638000	1.729168
6.639000	1.693738
6.640000	1.626420
6.641000	1.556847
6.642000	1.488563
6.643000	1.460541
6.644000	1.425433
6.645000	1.415770
6.646000	1.416414
6.647000	1.411261
6.648000	1.422856
6.649000	1.442504
6.650000	1.505956
6.651000	1.622233
6.652000	1.698569
6.653000	1.716928
6.654000	1.728202
6.655000	1.742052
6.656000	1.765565
6.657000	1.770396
6.658000	1.750104
6.659000	1.691483
6.660000	1.623843
6.661000	1.611281
6.662000	1.532368
6.663000	1.485342
6.664000	1.459253
6.665000	1.467949
6.666000	1.495005
6.667000	1.523994
6.668000	1.530436
6.669000	1.581327
6.670000	1.670869
6.671000	1.768141
6.672000	1.819999
6.673000	1.837714
6.674000	1.803572
6.675000	1.748494
6.676000	1.671835
6.677000	1.631573
6.678000	1.599042
6.679000	1.579394
6.680000	1.556847
6.681000	1.467305
6.682000	1.346842
6.683000	1.282745
6.684000	1.289831
6.685000	1.348452
6.686000	1.474713
6.687000	1.612570
6.688000	1.685363
6.689000	1.657341
6.690000	1.611281
6.691000	1.608060
6.692000	1.574563
6.693000	1.537844
6.694000	1.491784
6.695000	1.470526
6.696000	1.514653
6.697000	1.546540
6.698000	1.550083
6.699000	1.514975
6.700000	1.505956
6.701000	1.554271
6.702000	1.600974
6.703000	1.626420
6.704000	1.574240
6.705000	1.499192
6.706000	1.408040
6.707000	1.359726
6.708000	1.352639
6.709000	1.426721
6.710000	1.542353
6.711000	1.659273
6.712000	1.716928
6.713000	1.781992
6.714000	1.808725
6.715000	1.805182
6.716000	1.791332
6.717000	1.714352
6.718000	1.563611
6.719000	1.517230
6.720000	1.531080
6.721000	1.504668
6.722000	1.553949
6.723000	1.648644
6.724000	1.711131
6.725000	1.676989
6.726000	1.587446
6.727000	1.515297
6.728000	1.499837
6.729000	1.521095
6.730000	1.517552
6.731000	1.510466
6.732000	1.488563
6.733000	1.500803
6.734000	1.566832
6.735000	1.608705
6.736000	1.677955
6.737000	1.718217
6.738000	1.748816
6.739000	1.743662
6.740000	1.600008
6.741000	1.464084
6.742000	1.389036
6.743000	1.404497
6.744000	1.480189
6.745000	1.546540
6.746000	1.520129
6.747000	1.512398
6.748000	1.458609
6.749000	1.459253
6.750000	1.512720
6.751000	1.530758
6.752000	1.537844
6.753000	1.536878
6.754000	1.529791
6.755000	1.474391
6.756000	1.399665
6.757000	1.383883
6.758000	1.421890
6.759000	1.467305
6.760000	1.531402
6.761000	1.600008
6.762000	1.691161
6.763000	1.820965
6.764000	1.844800
6.765000	1.760733
6.766000	1.612892
6.767000	1.531080
6.768000	1.498548
6.769000	1.506923
6.770000	1.528825
6.771000	1.573274
6.772000	1.628674
6.773000	1.686651
6.774000	1.693738
6.775000	1.633828
6.776000	1.581971
6.777000	1.540743
6.778000	1.518196
6.779000	1.523027
6.780000	1.512076
6.781000	1.552016
6.782000	1.598075
6.783000	1.689228
6.784000	1.760089
6.785000	1.790366
6.786000	1.748816
6.787000	1.707266
6.788000	1.635761
6.789000	1.569409
6.790000	1.462152
6.791000	1.362624
6.792000	1.327194
6.793000	1.364557
6.794000	1.426721
6.795000	1.460541
6.796000	1.496616
6.797000	1.539132
6.798000	1.569409
6.799000	1.604839
6.800000	1.639626
6.801000	1.640592
6.802000	1.589701
6.803000	1.590345
6.804000	1.632540
6.805000	1.644457
6.806000	1.607094
6.807000	1.542997
6.808000	1.457320
6.809000	1.455388
6.810000	1.453455
6.811000	1.409650
6.812000	1.385815
6.813000	1.417703
6.814000	1.487597
6.815000	1.591956
6.816000	1.711131
6.817000	1.835459
6.818000	1.876687
6.819000	1.848665
6.820000	1.706299
6.821000	1.549761
6.822000	1.428654
6.823000	1.353928
6.824000	1.330737
6.825000	1.392579
6.826000	1.497582
6.827000	1.596143
6.828000	1.628674
6.829000	1.661206
6.830000	1.653154
6.831000	1.622233
6.832000	1.608383
6.833000	1.556525
6.834000	1.501447
6.835000	1.456354
6.836000	1.469238
6.837000	1.535267
6.838000	1.637371
6.839000	1.698247
6.840000	1.745273
6.841000	1.722726
6.842000	1.632218
6.843000	1.589701
6.844000	1.577461
6.845000	1.585514
6.846000	1.627708
6.847000	1.667004
6.848000	1.669903
6.849000	1.673446
6.850000	1.599042
6.851000	1.507245
6.852000	1.542353
6.853000	1.580038
6.854000	1.566188
6.855000	1.579394
6.856000	1.586802
6.857000	1.551050
6.858000	1.484054
6.859000	1.403530
6.860000	1.318175
6.861000	1.279846
6.862000	1.298850
6.863000	1.341044
6.864000	1.388392
6.865000	1.440571
6.866000	1.454743
6.867000	1.498226
6.868000	1.554593
6.869000	1.598720
6.870000	1.645745
6.871000	1.727235
6.872000	1.823220
6.873000	1.895691
6.874000	1.971061
6.875000	1.968806
6.876000	1.911151
6.877000	1.822575
6.878000	1.674412
6.879000	1.529469
6.880000	1.490496
6.881000	1.467949
6.882000	1.428332
6.883000	1.436384
6.884000	1.454743
6.885000	1.482444
6.886000	1.494361
6.887000	1.490818
6.888000	1.488241
6.889000	1.501447
6.890000	1.486309
6.891000	1.483088
6.892000	1.473747
6.893000	1.536555
6.894000	1.701790
6.895000	1.795842
6.896000	1.818388
6.897000	1.806793
6.898000	1.764598
6.899000	1.680532
6.900000	1.528825
6.901000	1.518518
6.902000	1.543319
6.903000	1.621588
6.904000	1.664749
6.905000	1.647678
6.906000	1.613536
6.907000	1.541709
6.908000	1.439283
6.909000	1.352317
6.910000	1.347486
6.911000	1.376152
6.912000	1.458931
6.913000	1.516263
6.914000	1.501125
6.915000	1.503058
6.916000	1.457320
6.917000	1.428010
6.918000	1.458286
6.919000	1.506279
6.920000	1.535911
6.921000	1.518840
6.922000	1.479545
6.923000	1.421568
6.924000	1.380018
6.925000	1.412549
6.926000	1.484698
6.927000	1.538488
6.928000	1.681820
6.929000	1.758156
6.930000	1.754613
6.931000	1.643491
6.932000	1.558458
6.933000	1.565222
6.934000	1.615469
6.935000	1.681820
6.936000	1.702434
6.937000	1.675378
6.938000	1.687296
6.939000	1.741085
6.940000	1.770074
6.941000	1.759123
6.942000	1.793265
6.943000	1.827085
6.944000	1.841579
6.945000	1.819677
6.946000	1.717573
6.947000	1.539454
6.948000	1.428976
6.949000	1.370355
6.950000	1.320430
6.951000	1.285644
6.952000	1.306580
6.953000	1.402242
6.954000	1.454743
6.955000	1.489208
6.956000	1.518196
6.957000	1.539454
6.958000	1.529147
6.959000	1.526248
6.960000	1.556203
6.961000	1.608705
6.962000	1.649289
6.963000	1.699213
6.964000	1.766853
6.965000	1.813879
6.966000	1.795519
6.967000	1.766531
6.968000	1.708876
6.969000	1.589701
6.970000	1.495005
6.971000	1.478578
6.972000	1.530758
6.973000	1.584548
6.974000	1.540743
6.975000	1.423178
6.976000	1.302715
6.977000	1.240551
6.978000	1.237330
6.979000	1.294663
6.980000	1.413837
6.981000	1.572952
6.982000	1.680532
6.983000	1.682142
6.984000	1.627708
6.985000	1.610315
6.986000	1.592922
6.987000	1.625131
6.988000	1.613858
6.989000	1.546540
6.990000	1.467627
6.991000	1.424789
6.992000	1.446369
6.993000	1.534623
6.994000	1.588091
6.995000	1.578106
6.996000	1.571986
6.997000	1.643491
6.998000	1.736576
6.999000	1.799707
7.000000	1.805504
7.001000	1.754291
7.002000	1.663461
7.003000	1.575207
7.004000	1.472459
7.005000	1.430908
7.006000	1.448946
7.007000	1.468916
7.008000	1.494361
7.009000	1.559424
7.010000	1.614180
7.011000	1.645101
7.012000	1.643813
7.013000	1.545574
7.014000	1.443470
7.015000	1.412871
7.016000	1.389680
7.017000	1.428976
7.018000	1.562323
7.019000	1.670225
7.020000	1.750104
7.021000	1.810980
7.022000	1.823864
7.023000	1.857684
7.024000	1.908575
7.025000	1.818066
7.026000	1.656053
7.027000	1.591312
7.028000	1.512398
7.029000	1.467949
7.030000	1.431875
7.031000	1.398377
7.032000	1.355538
7.033000	1.368100
7.034000	1.402564
7.035000	1.441215
7.036000	1.409006
7.037000	1.382272
7.038000	1.373254
7.039000	1.418991
7.040000	1.527537
7.041000	1.661528
7.042000	1.793909
7.043000	1.900522
7.044000	1.922747
7.045000	1.904387
7.046000	1.788111
7.047000	1.576817
7.048000	1.436706
7.049000	1.379695
7.050000	1.405141
7.051000	1.479545
7.052000	1.500159
7.053000	1.457964
7.054000	1.432197
7.055000	1.414804
7.056000	1.411261
7.057000	1.468916
7.058000	1.548795
7.059000	1.607416
7.060000	1.674090
7.061000	1.694060
7.062000	1.675378
7.063000	1.613536
7.064000	1.571020
7.065000	1.528825
7.066000	1.465373
7.067000	1.422534
7.068000	1.402242
7.069000	1.409006
7.070000	1.489530
7.071000	1.612248
7.072000	1.692127
7.073000	1.696959
7.074000	1.704045
7.075000	1.702756
7.076000	1.695348
7.077000	1.648644
7.078000	1.609027
7.079000	1.630607
7.080000	1.601296
7.081000	1.544930
7.082000	1.456998
7.083000	1.421890
7.084000	1.618690
7.085000	1.843512
7.086000	1.954956
7.087000	1.971061
7.088000	1.942717
7.089000	1.801317
7.090000	1.547829
7.091000	1.291119
7.092000	1.151331
7.093000	1.166147
7.094000	1.292730
7.095000	1.395478
7.096000	1.512720
7.097000	1.649611
7.098000	1.767497
7.099000	1.762988
7.100000	1.700179
7.101000	1.623521
7.102000	1.526893
7.103000	1.420924
7.104000	1.328482
7.105000	1.285644
7.106000	1.345876
7.107000	1.532368
7.108000	1.674412
7.109000	1.652832
7.110000	1.584548
7.111000	1.547829
7.112000	1.557492
7.113000	1.560068
7.114000	1.552660
7.115000	1.593888
7.116000	1.628674
7.117000	1.678599
7.118000	1.714674
7.119000	1.706943
7.120000	1.664427
7.121000	1.600330
7.122000	1.598075
7.123000	1.611603
7.124000	1.612248
7.125000	1.629641
7.126000	1.666360
7.127000	1.705011
7.128000	1.780381
7.129000	1.858650
7.130000	1.829662
7.131000	1.729490
7.132000	1.629963
7.133000	1.542353
7.134000	1.440571
7.135000	1.325906
7.136000	1.285000
7.137000	1.316565
7.138000	1.359726
7.139000	1.452811
7.140000	1.617723
7.141000	1.686651
7.142000	1.658629
7.143000	1.584548
7.144000	1.459575
7.145000	1.345231
7.146000	1.321718
7.147000	1.357471
7.148000	1.447979
7.149000	1.565222
7.150000	1.660240
7.151000	1.659918
7.152000	1.577784
7.153000	1.419957
7.154000	1.292730
7.155000	1.262131
7.156000	1.333314
7.157000	1.403853
7.158000	1.490818
7.159000	1.559424
7.160000	1.615791
7.161000	1.624809
7.162000	1.622233
7.163000	1.641236
7.164000	1.732711
7.165000	1.780381
7.166000	1.815167
7.167000	1.929833
7.168000	2.002626
7.169000	1.945616
7.170000	1.853819
7.171000	1.725625
7.172000	1.555559
7.173000	1.466017
7.174000	1.548473
7.175000	1.652187
7.176000	1.733355
7.177000	1.762666
7.178000	1.777804
7.179000	1.812268
7.180000	1.733677
7.181000	1.578750
7.182000	1.478901
7.183000	1.376474
7.184000	1.289831
7.185000	1.277914
7.186000	1.281135
7.187000	1.307868
7.188000	1.371643
7.189000	1.442504
7.190000	1.464406
7.191000	1.438639
7.192000	1.355216
7.193000	1.279524
7.194000	1.299172
7.195000	1.449912
7.196000	1.593244
7.197000	1.618367
7.198000	1.560068
7.199000	1.574240
7.200000	1.561357
7.201000	1.557492
7.202000	1.571986
7.203000	1.600330
7.204000	1.601941
7.205000	1.580682
7.206000	1.593244
7.207000	1.547829
7.208000	1.517230
7.209000	1.573596
7.210000	1.677633
7.211000	1.685685
7.212000	1.665393
7.213000	1.717250
7.214000	1.720471
7.215000	1.686651
7.216000	1.644135
7.217000	1.639626
7.218000	1.613858
7.219000	1.558780
7.220000	1.570375
7.221000	1.715962
7.222000	1.832238
7.223000	1.934664
7.224000	2.019053
7.225000	1.988132
7.226000	1.840613
7.227000	1.694060
7.228000	1.574240
7.229000	1.353284
7.230000	1.271472
7.231000	1.286932
7.232000	1.336857
7.233000	1.372287
7.234000	1.361336
7.235000	1.320430
7.236000	1.351673
7.237000	1.425433
7.238000	1.462474
7.239000	1.493073
7.240000	1.540098
7.241000	1.578106
7.242000	1.572630
7.243000	1.556525
7.244000	1.525926
7.245000	1.528181
7.246000	1.514653
7.247000	1.483732
7.248000	1.473425
7.249000	1.482121
7.250000	1.525604
7.251000	1.524316
7.252000	1.504024
7.253000	1.482766
7.254000	1.444436
7.255000	1.437995
7.256000	1.501125
7.257000	1.581971
7.258000	1.618045
7.259000	1.675700
7.260000	1.704045
7.261000	1.728846
7.262000	1.774261
7.263000	1.793265
7.264000	1.791010
7.265000	1.784568
7.266000	1.765565
7.267000	1.738831
7.268000	1.639948
7.269000	1.514331
7.270000	1.465050
7.271000	1.447335
7.272000	1.473747
7.273000	1.566510
7.274000	1.709520
7.275000	1.877009
7.276000	1.967518
7.277000	1.958499
7.278000	1.845766
7.279000	1.640592
7.280000	1.462474
7.281000	1.337823
7.282000	1.233787
7.283000	1.269217
7.284000	1.397733
7.285000	1.510788
7.286000	1.547829
7.287000	1.586158
7.288000	1.554593
7.289000	1.517552
7.290000	1.509822
7.291000	1.550728
7.292000	1.610959
7.293000	1.650577
7.294000	1.614180
7.295000	1.537200
7.296000	1.418669
7.297000	1.317531
7.298000	1.304003
7.299000	1.361658
7.300000	1.457964
7.301000	1.577784
7.302000	1.712419
7.303000	1.789078
7.304000	1.858006
7.305000	1.833849
7.306000	1.742374
7.307000	1.667648
7.308000	1.575851
7.309000	1.564578
7.310000	1.554915
7.311000	1.473747
7.312000	1.310123
7.313000	1.238940
7.314000	1.264708
7.315000	1.381628
7.316000	1.428332
7.317000	1.394190
7.318000	1.418669
7.319000	1.598075
7.320000	1.804216
7.321000	1.959144
7.322000	2.052873
7.323000	2.122124
7.324000	2.115682
7.325000	2.011323
7.326000	1.786501
7.327000	1.511754
7.328000	1.339756
7.329000	1.354894
7.330000	1.397089
7.331000	1.399343
7.332000	1.365523
7.333000	1.324617
7.334000	1.366812
7.335000	1.430264
7.336000	1.488241
7.337000	1.533012
7.338000	1.588413
7.339000	1.678599
7.340000	1.709198
7.341000	1.645423
7.342000	1.512398
7.343000	1.421890
7.344000	1.343943
7.345000	1.340722
7.346000	1.408040
7.347000	1.505634
7.348000	1.560390
7.349000	1.566188
7.350000	1.587124
7.351000	1.626098
7.352000	1.629319
7.353000	1.618690
7.354000	1.622555
7.355000	1.633184
7.356000	1.590345
7.357000	1.526571
7.358000	1.495649
7.359000	1.462474
7.360000	1.437350
7.361000	1.528825
7.362000	1.622555
7.363000	1.754291
7.364000	1.881519
7.365000	1.880552
7.366000	1.831916
7.367000	1.718217
7.368000	1.583903
7.369000	1.447979
7.370000	1.357471
7.371000	1.362302
7.372000	1.449590
7.373000	1.565222
7.374000	1.676989
7.375000	1.745595
7.376000	1.737220
7.377000	1.717250
7.378000	1.694704
7.379000	1.663139
7.380000	1.630607
7.381000	1.661850
7.382000	1.735288
7.383000	1.800673
7.384000	1.833527
7.385000	1.787789
7.386000	1.701146
7.387000	1.553626
7.388000	1.404497
7.389000	1.317531
7.390000	1.281457
7.391000	1.289187
7.392000	1.322041
7.393000	1.338145
7.394000	1.352639
7.395000	1.400632
7.396000	1.517552
7.397000	1.637371
7.398000	1.656053
7.399000	1.627064
7.400000	1.628030
7.401000	1.618367
7.402000	1.547185
7.403000	1.496294
7.404000	1.450234
7.405000	1.437028
7.406000	1.472781
7.407000	1.508533
7.408000	1.510788
7.409000	1.465373
7.410000	1.454421
7.411000	1.441215
7.412000	1.422534
7.413000	1.463118
7.414000	1.545896
7.415000	1.626420
7.416000	1.708876
7.417000	1.797774
7.418000	1.848665
7.419000	1.828051
7.420000	1.820321
7.421000	1.862837
7.422000	1.857362
7.423000	1.809370
7.424000	1.679565
7.425000	1.673124
7.426000	1.668614
7.427000	1.592922
7.428000	1.558136
7.429000	1.564256
7.430000	1.624487
7.431000	1.713063
7.432000	1.793265
7.433000	1.784246
7.434000	1.728846
7.435000	1.657341
7.436000	1.549439
7.437000	1.361658
7.438000	1.251502
7.439000	1.220259
7.440000	1.244094
7.441000	1.258266
7.442000	1.278880
7.443000	1.309479
7.444000	1.366490
7.445000	1.404175
7.446000	1.443148
7.447000	1.480833
7.448000	1.466017
7.449000	1.489530
7.450000	1.510788
7.451000	1.532368
7.452000	1.502736
7.453000	1.491140
7.454000	1.577461
7.455000	1.633184
7.456000	1.622877
7.457000	1.629319
7.458000	1.621266
7.459000	1.608705
7.460000	1.586802
7.461000	1.538810
7.462000	1.555237
7.463000	1.598075
7.464000	1.615147
7.465000	1.595177
7.466000	1.609993
7.467000	1.668292
7.468000	1.726913
7.469000	1.856717
7.470000	1.972994
7.471000	1.986844
7.472000	1.889571
7.473000	1.755258
7.474000	1.573918
7.475000	1.416736
7.476000	1.353284
7.477000	1.361336
7.478000	1.390325
7.479000	1.417703
7.480000	1.462796
7.481000	1.548473
7.482000	1.697925
7.483000	1.825474
7.484000	1.833527
7.485000	1.744629
7.486000	1.568765
7.487000	1.432841
7.488000	1.324617
7.489000	1.254079
7.490000	1.296595
7.491000	1.418991
7.492000	1.489208
7.493000	1.559102
7.494000	1.568765
7.495000	1.526571
7.496000	1.463118
7.497000	1.412871
7.498000	1.406107
7.499000	1.434129
7.500000	1.520451
7.501000	1.684075
7.502000	1.715318
7.503000	1.652187
7.504000	1.580038
7.505000	1.528825
7.506000	1.478901
7.507000	1.460541
7.508000	1.490174
7.509000	1.549439
7.510000	1.542353
7.511000	1.528181
7.512000	1.571664
7.513000	1.628997
7.514000	1.675378
7.515000	1.715640
7.516000	1.739797
7.517000	1.750426
7.518000	1.748494
7.519000	1.716928
7.520000	1.715318
7.521000	1.762344
7.522000	1.833205
7.523000	1.749782
7.524000	1.590667
7.525000	1.458931
7.526000	1.374864
7.527000	1.376474
7.528000	1.359403
7.529000	1.399665
7.530000	1.457964
7.531000	1.505634
7.532000	1.492751
7.533000	1.438961
7.534000	1.426077
7.535000	1.472459
7.536000	1.506923
7.537000	1.528181
7.538000	1.569409
7.539000	1.603551
7.540000	1.648644
7.541000	1.685685
7.542000	1.574563
7.543000	1.512076
7.544000	1.520129
7.545000	1.563611
7.546000	1.614180
7.547000	1.684397
7.548000	1.763954
7.549000	1.791654
7.550000	1.707910
7.551000	1.602907
7.552000	1.497904
7.553000	1.489530
7.554000	1.497904
7.555000	1.508211
7.556000	1.525926
7.557000	1.574563
7.558000	1.584548
7.559000	1.523350
7.560000	1.476002
7.561000	1.469238
7.562000	1.498870
7.563000	1.516908
7.564000	1.529147
7.565000	1.495649
7.566000	1.496294
7.567000	1.523994
7.568000	1.597431
7.569000	1.706621
7.570000	1.824186
7.571000	1.888605
7.572000	1.881519
7.573000	1.832882
7.574000	1.782958
7.575000	1.704367
7.576000	1.601941
7.577000	1.540098
7.578000	1.505312
7.579000	1.473425
7.580000	1.454743
7.581000	1.411261
7.582000	1.309479
7.583000	1.262131
7.584000	1.301426
7.585000	1.405463
7.586000	1.452489
7.587000	1.447657
7.588000	1.408040
7.589000	1.409006
7.590000	1.396444
7.591000	1.369066
7.592000	1.396122
7.593000	1.476002
7.594000	1.557492
7.595000	1.630607
7.596000	1.681498
7.597000	1.736898
7.598000	1.828373
7.599000	1.930477
7.600000	1.968484
7.601000	1.918238
7.602000	1.784246
7.603000	1.580360
7.604000	1.412549
7.605000	1.324295
7.606000	1.287576
7.607000	1.266640
7.608000	1.340078
7.609000	1.404819
7.610000	1.441860
7.611000	1.506923
7.612000	1.585514
7.613000	1.687618
7.614000	1.802928
7.615000	1.841257
7.616000	1.897623
7.617000	1.896335
7.618000	1.835781
7.619000	1.803894
7.620000	1.761055
7.621000	1.670225
7.622000	1.546862
7.623000	1.456676
7.624000	1.404175
7.625000	1.370677
7.626000	1.343621
7.627000	1.398377
7.628000	1.521417
7.629000	1.599686
7.630000	1.587446
7.631000	1.548795
7.632000	1.476968
7.633000	1.401276
7.634000	1.370355
7.635000	1.369066
7.636000	1.454743
7.637000	1.569087
7.638000	1.615791
7.639000	1.638337
7.640000	1.650899
7.641000	1.575207
7.642000	1.518196
7.643000	1.531724
7.644000	1.545574
7.645000	1.525926
7.646000	1.523027
7.647000	1.540743
7.648000	1.545574
7.649000	1.585514
7.650000	1.627064
7.651000	1.597753
7.652000	1.549439
7.653000	1.501447
7.654000	1.460541
7.655000	1.455388
7.656000	1.523994
7.657000	1.614180
7.658000	1.715640
7.659000	1.793909
7.660000	1.764598
7.661000	1.618367
7.662000	1.610959
7.663000	1.638981
7.664000	1.717895
7.665000	1.805182
7.666000	1.832560
7.667000	1.821609
7.668000	1.761055
7.669000	1.594855
7.670000	1.438317
7.671000	1.389680
7.672000	1.370355
7.673000	1.348452
7.674000	1.433807
7.675000	1.529147
7.676000	1.577784
7.677000	1.596143
7.678000	1.569409
7.679000	1.547829
7.680000	1.468593
7.681000	1.385493
7.682000	1.342655
7.683000	1.390002
7.684000	1.460219
7.685000	1.505634
7.686000	1.564256
7.687000	1.646712
7.688000	1.716284
7.689000	1.695026
7.690000	1.609027
7.691000	1.530758
7.692000	1.512720
7.693000	1.527215
7.694000	1.521417
7.695000	1.473103
7.696000	1.465050
7.697000	1.458931
7.698000	1.421890
7.699000	1.423178
7.700000	1.515941
7.701000	1.641236
7.702000	1.661528
7.703000	1.634794
7.704000	1.650577
7.705000	1.658951
7.706000	1.622555
7.707000	1.642202
7.708000	1.726269
7.709000	1.772973
7.710000	1.763954
7.711000	1.691161
7.712000	1.568121
7.713000	1.482121
7.714000	1.519484
7.715000	1.578106
7.716000	1.598075
7.717000	1.627386
7.718000	1.621588
7.719000	1.643169
7.720000	1.658951
7.721000	1.636405
7.722000	1.573918
7.723000	1.541065
7.724000	1.513043
7.725000	1.513687
7.726000	1.512398
7.727000	1.502413
7.728000	1.481155
7.729000	1.470204
7.730000	1.470526
7.731000	1.514975
7.732000	1.524960
7.733000	1.515297
7.734000	1.508855
7.735000	1.533657
7.736000	1.557492
7.737000	1.560390
7.738000	1.526571
7.739000	1.452167
7.740000	1.392257
7.741000	1.397411
7.742000	1.416736
7.743000	1.503702
7.744000	1.632540
7.745000	1.591634
7.746000	1.559102
7.747000	1.547507
7.748000	1.488885
7.749000	1.428976
7.750000	1.485665
7.751000	1.594210
7.752000	1.638337
7.753000	1.669580
7.754000	1.687618
7.755000	1.658951
7.756000	1.605806
7.757000	1.567799
7.758000	1.525604
7.759000	1.468916
7.760000	1.448624
7.761000	1.547829
7.762000	1.755902
7.763000	2.043532
7.764000	2.225194
7.765000	2.263201
7.766000	2.139839
7.767000	1.844478
7.768000	1.554271
7.769000	1.316243
7.770000	1.187405
7.771000	1.174199
7.772000	1.237974
7.773000	1.362302
7.774000	1.486631
7.775000	1.581004
7.776000	1.666682
7.777000	1.759767
7.778000	1.805827
7.779000	1.820321
7.780000	1.788433
7.781000	1.724337
7.782000	1.638015
7.783000	1.594855
7.784000	1.542353
7.785000	1.488885
7.786000	1.451522
7.787000	1.452489
7.788000	1.445081
7.789000	1.485020
7.790000	1.542353
7.791000	1.535911
7.792000	1.456998
7.793000	1.376152
7.794000	1.322041
7.795000	1.295307
7.796000	1.279202
7.797000	1.308513
7.798000	1.386137
7.799000	1.466661
7.800000	1.538488
7.801000	1.608060
7.802000	1.634150
7.803000	1.633828
7.804000	1.623199
7.805000	1.635116
7.806000	1.669903
7.807000	1.717573
7.808000	1.794553
7.809000	1.833849
7.810000	1.850276
7.811000	1.834493
7.812000	1.734321
7.813000	1.611281
7.814000	1.516908
7.815000	1.462152
7.816000	1.484054
7.817000	1.581971
7.818000	1.681176
7.819000	1.718217
7.820000	1.674090
7.821000	1.581971
7.822000	1.483088
7.823000	1.409972
7.824000	1.350063
7.825000	1.376152
7.826000	1.444114
7.827000	1.537522
7.828000	1.632862
7.829000	1.743984
7.830000	1.841257
7.831000	1.909541
7.832000	1.981368
7.833000	1.920170
7.834000	1.841901
7.835000	1.652187
7.836000	1.474391
7.837000	1.376152
7.838000	1.389358
7.839000	1.498870
7.840000	1.581971
7.841000	1.547829
7.842000	1.450234
7.843000	1.358759
7.844000	1.315599
7.845000	1.312378
7.846000	1.343621
7.847000	1.404175
7.848000	1.469882
7.849000	1.517230
7.850000	1.515297
7.851000	1.532368
7.852000	1.545574
7.853000	1.536233
7.854000	1.546218
7.855000	1.562001
7.856000	1.569731
7.857000	1.595821
7.858000	1.643813
7.859000	1.687618
7.860000	1.673768
7.861000	1.648644
7.862000	1.608705
7.863000	1.532368
7.864000	1.473103
7.865000	1.433163
7.866000	1.407073
7.867000	1.440893
7.868000	1.546540
7.869000	1.550728
7.870000	1.566510
7.871000	1.627064
7.872000	1.627708
7.873000	1.549117
7.874000	1.503058
7.875000	1.485020
7.876000	1.576495
7.877000	1.704367
7.878000	1.809692
7.879000	1.822898
7.880000	1.795519
7.881000	1.810336
7.882000	1.707910
7.883000	1.567799
7.884000	1.533334
7.885000	1.559102
7.886000	1.553304
7.887000	1.581004
7.888000	1.628997
7.889000	1.635116
7.890000	1.611926
7.891000	1.557169
7.892000	1.473103
7.893000	1.492106
7.894000	1.596465
7.895000	1.676022
7.896000	1.668614
7.897000	1.638659
7.898000	1.577139
7.899000	1.501769
7.900000	1.416736
7.901000	1.341366
7.902000	1.338467
7.903000	1.401598
7.904000	1.477612
7.905000	1.485020
7.906000	1.442182
7.907000	1.391613
7.908000	1.352639
7.909000	1.333958
7.910000	1.381628
7.911000	1.417703
7.912000	1.439605
7.913000	1.506601
7.914000	1.570375
7.915000	1.588413
7.916000	1.605162
7.917000	1.642525
7.918000	1.672157
7.919000	1.699213
7.920000	1.762666
7.921000	1.808403
7.922000	1.825474
7.923000	1.893114
7.924000	1.916949
7.925000	1.892792
7.926000	1.782636
7.927000	1.598075
7.928000	1.476324
7.929000	1.432519
7.930000	1.411905
7.931000	1.372609
7.932000	1.362947
7.933000	1.370999
7.934000	1.378407
7.935000	1.417380
7.936000	1.534945
7.937000	1.631573
7.938000	1.685685
7.939000	1.751715
7.940000	1.727235
7.941000	1.661206
7.942000	1.597109
7.943000	1.502091
7.944000	1.403530
7.945000	1.326228
7.946000	1.279846
7.947000	1.300782
7.948000	1.364879
7.949000	1.470204
7.950000	1.547829
7.951000	1.602907
7.952000	1.621588
7.953000	1.630285
7.954000	1.664105
7.955000	1.680210
7.956000	1.615147
7.957000	1.544608
7.958000	1.490496
7.959000	1.411261
7.960000	1.355860
7.961000	1.351029
7.962000	1.411905
7.963000	1.494361
7.964000	1.576495
7.965000	1.585192
7.966000	1.574240
7.967000	1.520773
7.968000	1.477612
7.969000	1.460863
7.970000	1.468916
7.971000	1.558458
7.972000	1.649611
7.973000	1.722404
7.974000	1.768141
7.975000	1.753325
7.976000	1.675378
7.977000	1.602907
7.978000	1.644779
7.979000	1.625131
7.980000	1.683753
7.981000	1.738831
7.982000	1.750426
7.983000	1.727558
7.984000	1.656053
7.985000	1.538166
7.986000	1.506923
7.987000	1.482444
7.988000	1.497260
7.989000	1.494683
7.990000	1.534945
7.991000	1.542675
7.992000	1.564578
7.993000	1.601619
7.994000	1.561035
7.995000	1.543642
7.996000	1.524638
7.997000	1.477612
7.998000	1.450556
7.999000	1.448624
8.000000	1.444759
8.001000	1.433163
8.002000	1.458931
8.003000	1.542675
8.004000	1.601619
8.005000	1.568765
8.006000	1.467949
8.007000	1.384849
8.008000	1.358437
8.009000	1.329449
8.010000	1.362302
8.011000	1.460219
8.012000	1.553949
8.013000	1.591956
8.014000	1.615791
8.015000	1.622555
8.016000	1.613214
8.017000	1.674412
8.018000	1.701146
8.019000	1.732711
8.020000	1.749138
8.021000	1.779093
8.022000	1.896657
8.023000	1.970417
8.024000	1.939174
8.025000	1.859294
8.026000	1.726913
8.027000	1.558458
8.028000	1.441538
8.029000	1.416414
8.030000	1.459253
8.031000	1.531080
8.032000	1.592922
8.033000	1.559424
8.034000	1.450878
8.035000	1.363913
8.036000	1.294663
8.037000	1.291442
8.038000	1.355860
8.039000	1.476002
8.040000	1.619656
8.041000	1.735932
8.042000	1.825474
8.043000	1.899556
8.044000	1.843834
8.045000	1.752037
8.046000	1.619334
8.047000	1.479545
8.048000	1.383238
8.049000	1.266318
8.050000	1.213495
8.051000	1.199645
8.052000	1.236686
8.053000	1.356183
8.054000	1.502091
8.055000	1.648000
8.056000	1.709520
8.057000	1.712097
8.058000	1.715962
8.059000	1.711453
8.060000	1.749460
8.061000	1.808725
8.062000	1.846088
8.063000	1.846088
8.064000	1.753003
8.065000	1.659596
8.066000	1.586480
8.067000	1.569731
8.068000	1.562323
8.069000	1.559424
8.070000	1.572952
8.071000	1.540098
8.072000	1.559102
8.073000	1.657019
8.074000	1.733355
8.075000	1.765243
8.076000	1.718861
8.077000	1.641558
8.078000	1.516908
8.079000	1.404175
8.080000	1.349419
8.081000	1.373576
8.082000	1.499515
8.083000	1.595821
8.084000	1.625776
8.085000	1.660562
8.086000	1.702112
8.087000	1.756868
8.088000	1.835137
8.089000	1.879908
8.090000	1.773617
8.091000	1.622233
8.092000	1.511754
8.093000	1.443792
8.094000	1.451522
8.095000	1.506601
8.096000	1.565222
8.097000	1.637693
8.098000	1.649933
8.099000	1.593566
8.100000	1.497260
8.101000	1.342655
8.102000	1.190948
8.103000	1.136192
8.104000	1.198034
8.105000	1.349741
8.106000	1.514653
8.107000	1.665071
8.108000	1.728202
8.109000	1.738187
8.110000	1.720794
8.111000	1.654120
8.112000	1.595821
8.113000	1.527537
8.114000	1.497904
8.115000	1.528503
8.116000	1.580038
8.117000	1.590667
8.118000	1.562967
8.119000	1.549439
8.120000	1.571342
8.121000	1.546218
8.122000	1.561357
8.123000	1.641880
8.124000	1.752359
8.125000	1.818066
8.126000	1.844478
8.127000	1.829017
8.128000	1.818066
8.129000	1.791654
8.130000	1.718217
8.131000	1.617401
8.132000	1.524316
8.133000	1.428332
8.134000	1.353928
8.135000	1.299494
8.136000	1.291442
8.137000	1.382916
8.138000	1.546862
8.139000	1.740763
8.140000	1.874111
8.141000	1.898912
8.142000	1.829017
8.143000	1.699857
8.144000	1.546862
8.145000	1.451200
8.146000	1.420279
8.147000	1.377119
8.148000	1.400632
8.149000	1.449268
8.150000	1.518518
8.151000	1.556203
8.152000	1.543319
8.153000	1.477290
8.154000	1.427043
8.155000	1.427365
8.156000	1.423500
8.157000	1.467949
8.158000	1.530436
8.159000	1.596465
8.160000	1.683753
8.161000	1.711775
8.162000	1.750426
8.163000	1.719827
8.164000	1.688262
8.165000	1.623199
8.166000	1.461830
8.167000	1.420279
8.168000	1.340722
8.169000	1.359726
8.170000	1.444114
8.171000	1.562645
8.172000	1.641880
8.173000	1.733999
8.174000	1.806793
8.175000	1.869601
8.176000	1.843189
8.177000	1.730778
8.178000	1.664105
8.179000	1.604195
8.180000	1.545574
8.181000	1.484376
8.182000	1.434451
8.183000	1.450878
8.184000	1.481799
8.185000	1.525604
8.186000	1.534945
8.187000	1.591312
8.188000	1.638337
8.189000	1.609027
8.190000	1.523027
8.191000	1.439283
8.192000	1.376474
8.193000	1.396766
8.194000	1.420924
8.195000	1.417380
8.196000	1.449912
8.197000	1.526248
8.198000	1.560713
8.199000	1.506279
8.200000	1.482121
8.201000	1.503058
8.202000	1.546540
8.203000	1.528825
8.204000	1.491462
8.205000	1.498226
8.206000	1.558136
8.207000	1.658629
8.208000	1.760411
8.209000	1.829662
8.210000	1.841257
8.211000	1.753325
8.212000	1.631251
8.213000	1.496938
8.214000	1.403530
8.215000	1.370355
8.216000	1.381950
8.217000	1.407718
8.218000	1.468916
8.219000	1.570375
8.220000	1.649611
8.221000	1.680210
8.222000	1.665393
8.223000	1.638659
8.224000	1.619978
8.225000	1.616757
8.226000	1.579072
8.227000	1.567799
8.228000	1.577139
8.229000	1.578750
8.230000	1.505956
8.231000	1.442182
8.232000	1.409328
8.233000	1.375186
8.234000	1.393545
8.235000	1.437028
8.236000	1.403530
8.237000	1.349096
8.238000	1.328160
8.239000	1.332348
8.240000	1.374220
8.241000	1.499837
8.242000	1.679565
8.243000	1.838680
8.244000	1.950769
8.245000	1.961076
8.246000	1.851242
8.247000	1.722404
8.248000	1.614824
8.249000	1.535267
8.250000	1.541709
8.251000	1.609349
8.252000	1.697603
8.253000	1.750104
8.254000	1.744306
8.255000	1.709520
8.256000	1.610959
8.257000	1.500803
8.258000	1.414160
8.259000	1.409650
8.260000	1.438961
8.261000	1.500803
8.262000	1.536878
8.263000	1.520773
8.264000	1.490818
8.265000	1.483410
8.266000	1.469238
8.267000	1.485987
8.268000	1.558780
8.269000	1.589701
8.270000	1.561357
8.271000	1.562967
8.272000	1.554593
8.273000	1.544608
8.274000	1.565866
8.275000	1.561035
8.276000	1.578106
8.277000	1.603551
8.278000	1.581971
8.279000	1.585192
8.280000	1.563611
8.281000	1.537522
8.282000	1.512398
8.283000	1.524316
8.284000	1.545574
8.285000	1.586480
8.286000	1.607416
8.287000	1.634150
8.288000	1.613858
8.289000	1.577139
8.290000	1.539132
8.291000	1.510788
8.292000	1.524316
8.293000	1.539132
8.294000	1.534623
8.295000	1.476002
8.296000	1.464406
8.297000	1.515619
8.298000	1.533334
8.299000	1.517230
8.300000	1.446691
8.301000	1.453455
8.302000	1.537200
8.303000	1.659596
8.304000	1.789078
8.305000	1.886028
8.306000	1.908253
8.307000	1.854463
8.308000	1.772973
8.309000	1.656375
8.310000	1.514009
8.311000	1.378729
8.312000	1.336857
8.313000	1.319786
8.314000	1.351995
8.315000	1.431875
8.316000	1.579072
8.317000	1.662816
8.318000	1.748816
8.319000	1.812268
8.320000	1.819354
8.321000	1.803250
8.322000	1.759445
8.323000	1.664749
8.324000	1.610637
8.325000	1.636083
8.326000	1.656375
8.327000	1.602907
8.328000	1.555237
8.329000	1.498870
8.330000	1.432841
8.331000	1.448946
8.332000	1.472781
8.333000	1.428010
8.334000	1.402242
8.335000	1.371643
8.336000	1.369066
8.337000	1.399665
8.338000	1.495005
8.339000	1.522705
8.340000	1.483410
8.341000	1.436706
8.342000	1.427365
8.343000	1.445403
8.344000	1.458609
8.345000	1.570053
8.346000	1.689228
8.347000	1.782314
8.348000	1.821287
8.349000	1.825796
8.350000	1.826118
8.351000	1.805182
8.352000	1.795842
8.353000	1.761700
8.354000	1.674090
8.355000	1.666682
8.356000	1.691483
8.357000	1.705333
8.358000	1.663783
8.359000	1.596465
8.360000	1.530758
8.361000	1.461185
8.362000	1.403530
8.363000	1.373576
8.364000	1.392901
8.365000	1.447013
8.366000	1.502736
8.367000	1.581971
8.368000	1.625776
8.369000	1.630607
8.370000	1.602263
8.371000	1.546218
8.372000	1.481799
8.373000	1.471492
8.374000	1.532690
8.375000	1.575207
8.376000	1.536555
8.377000	1.513043
8.378000	1.477612
8.379000	1.409006
8.380000	1.353284
8.381000	1.306902
8.382000	1.294018
8.383000	1.304003
8.384000	1.342655
8.385000	1.425433
8.386000	1.498870
8.387000	1.638337
8.388000	1.756868
8.389000	1.859938
8.390000	1.920814
8.391000	1.896979
8.392000	1.845122
8.393000	1.770074
8.394000	1.695670
8.395000	1.646712
8.396000	1.597753
8.397000	1.560390
8.398000	1.554593
8.399000	1.543319
8.400000	1.498870
8.401000	1.444436
8.402000	1.450878
8.403000	1.473103
8.404000	1.520451
8.405000	1.592600
8.406000	1.621588
8.407000	1.690517
8.408000	1.664105
8.409000	1.647678
8.410000	1.654442
8.411000	1.654120
8.412000	1.662494
8.413000	1.678599
8.414000	1.686007
8.415000	1.617401
8.416000	1.616435
8.417000	1.636405
8.418000	1.560068
8.419000	1.492751
8.420000	1.470848
8.421000	1.485020
8.422000	1.524960
8.423000	1.566510
8.424000	1.574240
8.425000	1.628352
8.426000	1.670225
8.427000	1.665071
8.428000	1.614180
8.429000	1.517874
8.430000	1.448946
8.431000	1.410616
8.432000	1.363269
8.433000	1.321718
8.434000	1.305292
8.435000	1.320108
8.436000	1.381306
8.437000	1.413515
8.438000	1.422856
8.439000	1.489530
8.440000	1.562001
8.441000	1.592600
8.442000	1.603229
8.443000	1.597109
8.444000	1.612570
8.445000	1.695992
8.446000	1.754613
8.447000	1.771684
8.448000	1.755902
8.449000	1.722726
8.450000	1.595499
8.451000	1.477934
8.452000	1.420601
8.453000	1.445725
8.454000	1.546862
8.455000	1.687618
8.456000	1.802928
8.457000	1.811302
8.458000	1.761055
8.459000	1.671835
8.460000	1.613214
8.461000	1.544286
8.462000	1.454421
8.463000	1.466339
8.464000	1.464406
8.465000	1.467305
8.466000	1.456998
8.467000	1.421890
8.468000	1.421246
8.469000	1.491462
8.470000	1.570053
8.471000	1.656375
8.472000	1.700179
8.473000	1.697603
8.474000	1.698891
8.475000	1.665393
8.476000	1.607738
8.477000	1.634150
8.478000	1.701146
8.479000	1.762666
8.480000	1.815489
8.481000	1.827085
8.482000	1.707588
8.483000	1.595821
8.484000	1.489208
8.485000	1.426721
8.486000	1.452489
8.487000	1.424144
8.488000	1.361980
8.489000	1.365845
8.490000	1.337823
8.491000	1.322041
8.492000	1.343299
8.493000	1.365523
8.494000	1.394512
8.495000	1.451845
8.496000	1.514653
8.497000	1.582293
8.498000	1.600330
8.499000	1.575529
8.500000	1.536555
8.501000	1.496616
8.502000	1.432519
8.503000	1.471170
8.504000	1.553626
8.505000	1.605806
8.506000	1.639626
8.507000	1.627708
8.508000	1.599042
8.509000	1.567477
8.510000	1.523350
8.511000	1.492751
8.512000	1.517552
8.513000	1.596787
8.514000	1.670547
8.515000	1.698247
8.516000	1.618367
8.517000	1.487275
8.518000	1.445081
8.519000	1.426077
8.520000	1.457964
8.521000	1.531402
8.522000	1.624165
8.523000	1.702756
8.524000	1.719183
8.525000	1.686007
8.526000	1.638981
8.527000	1.600330
8.528000	1.601296
8.529000	1.604839
8.530000	1.580360
8.531000	1.570053
8.532000	1.579394
8.533000	1.623199
8.534000	1.681820
8.535000	1.705333
8.536000	1.731423
8.537000	1.732711
8.538000	1.705333
8.539000	1.615469
8.540000	1.592278
8.541000	1.547829
8.542000	1.481477
8.543000	1.392579
8.544000	1.297883
8.545000	1.239906
8.546000	1.233142
8.547000	1.245382
8.548000	1.279524
8.549000	1.349419
8.550000	1.460541
8.551000	1.590345
8.552000	1.663139
8.553000	1.700824
8.554000	1.677633
8.555000	1.628674
8.556000	1.572952
8.557000	1.531080
8.558000	1.498548
8.559000	1.515619
8.560000	1.637371
8.561000	1.770396
8.562000	1.899878
8.563000	1.948837
8.564000	1.897301
8.565000	1.732711
8.566000	1.544286
8.567000	1.412549
8.568000	1.369388
8.569000	1.376474
8.570000	1.420924
8.571000	1.482766
8.572000	1.517230
8.573000	1.570697
8.574000	1.577461
8.575000	1.564900
8.576000	1.600008
8.577000	1.645745
8.578000	1.645101
8.579000	1.583581
8.580000	1.487919
8.581000	1.381306
8.582000	1.337823
8.583000	1.377441
8.584000	1.414482
8.585000	1.443470
8.586000	1.508533
8.587000	1.623199
8.588000	1.688906
8.589000	1.710809
8.590000	1.723692
8.591000	1.751393
8.592000	1.771362
8.593000	1.793909
8.594000	1.772651
8.595000	1.652832
8.596000	1.499515
8.597000	1.444759
8.598000	1.437028
8.599000	1.504346
8.600000	1.505956
8.601000	1.501125
8.602000	1.537522
8.603000	1.596143
8.604000	1.659918
8.605000	1.677311
8.606000	1.708232
8.607000	1.717250
8.608000	1.659918
8.609000	1.540421
8.610000	1.423500
8.611000	1.388714
8.612000	1.427688
8.613000	1.508533
8.614000	1.571020
8.615000	1.628997
8.616000	1.708876
8.617000	1.762022
8.618000	1.734644
8.619000	1.663461
8.620000	1.588413
8.621000	1.552660
8.622000	1.543319
8.623000	1.532368
8.624000	1.600974
8.625000	1.664749
8.626000	1.720471
8.627000	1.772973
8.628000	1.762022
8.629000	1.703723
8.630000	1.601296
8.631000	1.439283
8.632000	1.332348
8.633000	1.308513
8.634000	1.319464
8.635000	1.305614
8.636000	1.308835
8.637000	1.428976
8.638000	1.549439
8.639000	1.631573
8.640000	1.678599
8.641000	1.666360
8.642000	1.638981
8.643000	1.615791
8.644000	1.559424
8.645000	1.490174
8.646000	1.469238
8.647000	1.513043
8.648000	1.562967
8.649000	1.591956
8.650000	1.589701
8.651000	1.644457
8.652000	1.714030
8.653000	1.686329
8.654000	1.599686
8.655000	1.499515
8.656000	1.430908
8.657000	1.399021
8.658000	1.366812
8.659000	1.366812
8.660000	1.452167
8.661000	1.611603
8.662000	1.652509
8.663000	1.611926
8.664000	1.606772
8.665000	1.664105
8.666000	1.737865
8.667000	1.849309
8.668000	1.942395
8.669000	1.950125
8.670000	1.888927
8.671000	1.791010
8.672000	1.647034
8.673000	1.444436
8.674000	1.340722
8.675000	1.349096
8.676000	1.341366
8.677000	1.359726
8.678000	1.412227
8.679000	1.480833
8.680000	1.517552
8.681000	1.531402
8.682000	1.526248
8.683000	1.521417
8.684000	1.543319
8.685000	1.573918
8.686000	1.633184
8.687000	1.724014
8.688000	1.751393
8.689000	1.723370
8.690000	1.681820
8.691000	1.603873
8.692000	1.600008
8.693000	1.635116
8.694000	1.667326
8.695000	1.648966
8.696000	1.556525
8.697000	1.477612
8.698000	1.419313
8.699000	1.396122
8.700000	1.399665
8.701000	1.388392
8.702000	1.367778
8.703000	1.447979
8.704000	1.514975
8.705000	1.547829
8.706000	1.565222
8.707000	1.604195
8.708000	1.631573
8.709000	1.641880
8.710000	1.655730
8.711000	1.659273
8.712000	1.639626
8.713000	1.596465
8.714000	1.556847
8.715000	1.474391
8.716000	1.414804
8.717000	1.393545
8.718000	1.389680
8.719000	1.418991
8.720000	1.451845
8.721000	1.505312
8.722000	1.522705
8.723000	1.534623
8.724000	1.595821
8.725000	1.685041
8.726000	1.766531
8.727000	1.851564
8.728000	1.876687
8.729000	1.858006
8.730000	1.776516
8.731000	1.603873
8.732000	1.454421
8.733000	1.374542
8.734000	1.400632
8.735000	1.498226
8.736000	1.527215
8.737000	1.521417
8.738000	1.499515
8.739000	1.484054
8.740000	1.441860
8.741000	1.413193
8.742000	1.446369
8.743000	1.510144
8.744000	1.578750
8.745000	1.556525
8.746000	1.526571
8.747000	1.504990
8.748000	1.517874
8.749000	1.534623
8.750000	1.537200
8.751000	1.521095
8.752000	1.512076
8.753000	1.541387
8.754000	1.643491
8.755000	1.759445
8.756000	1.858006
8.757000	1.935631
8.758000	1.938852
8.759000	1.854141
8.760000	1.729490
8.761000	1.600652
8.762000	1.458609
8.763000	1.374220
8.764000	1.337823
8.765000	1.300138
8.766000	1.332025
8.767000	1.377441
8.768000	1.402242
8.769000	1.510788
8.770000	1.505312
8.771000	1.456676
8.772000	1.421568
8.773000	1.407073
8.774000	1.399665
8.775000	1.465373
8.776000	1.522705
8.777000	1.539776
8.778000	1.545896
8.779000	1.538166
8.780000	1.538488
8.781000	1.534945
8.782000	1.551050
8.783000	1.547185
8.784000	1.564256
8.785000	1.542997
8.786000	1.546540
8.787000	1.607094
8.788000	1.674734
8.789000	1.683108
8.790000	1.671513
8.791000	1.672157
8.792000	1.662172
8.793000	1.561357
8.794000	1.421246
8.795000	1.345553
8.796000	1.386459
8.797000	1.433807
8.798000	1.520129
8.799000	1.634150
8.800000	1.654442
8.801000	1.694060
8.802000	1.686007
8.803000	1.610637
8.804000	1.562001
8.805000	1.507245
8.806000	1.495327
8.807000	1.495005
8.808000	1.495005
8.809000	1.531080
8.810000	1.571020
8.811000	1.622555
8.812000	1.708232
8.813000	1.782314
8.814000	1.801317
8.815000	1.830306
8.816000	1.826763
8.817000	1.805182
8.818000	1.742374
8.819000	1.572952
8.820000	1.430908
8.821000	1.391613
8.822000	1.428010
8.823000	1.503380
8.824000	1.475035
8.825000	1.426721
8.826000	1.441215
8.827000	1.471814
8.828000	1.477934
8.829000	1.443792
8.830000	1.430908
8.831000	1.441538
8.832000	1.495972
8.833000	1.520451
8.834000	1.531724
8.835000	1.542675
8.836000	1.553949
8.837000	1.580360
8.838000	1.596465
8.839000	1.588091
8.840000	1.600974
8.841000	1.600008
8.842000	1.558136
8.843000	1.522383
8.844000	1.535267
8.845000	1.537200
8.846000	1.554915
8.847000	1.651543
8.848000	1.649289
8.849000	1.618045
8.850000	1.610959
8.851000	1.581327
8.852000	1.483410
8.853000	1.404175
8.854000	1.385493
8.855000	1.394190
8.856000	1.446369
8.857000	1.448946
8.858000	1.425755
8.859000	1.405141
8.860000	1.439605
8.861000	1.546862
8.862000	1.723048
8.863000	1.875399
8.864000	1.877009
8.865000	1.788111
8.866000	1.640914
8.867000	1.499515
8.868000	1.346198
8.869000	1.257944
8.870000	1.344587
8.871000	1.557169
8.872000	1.727880
8.873000	1.792621
8.874000	1.812913
8.875000	1.847055
8.876000	1.763954
8.877000	1.561679
8.878000	1.391935
8.879000	1.365845
8.880000	1.410294
8.881000	1.415770
8.882000	1.364235
8.883000	1.358437
8.884000	1.412871
8.885000	1.481155
8.886000	1.530436
8.887000	1.558780
8.888000	1.613214
8.889000	1.693093
8.890000	1.753647
8.891000	1.742374
8.892000	1.699213
8.893000	1.703078
8.894000	1.694382
8.895000	1.648966
8.896000	1.652187
8.897000	1.724014
8.898000	1.796486
8.899000	1.819354
8.900000	1.864448
8.901000	1.909219
8.902000	1.929189
8.903000	1.881197
8.904000	1.816778
8.905000	1.699535
8.906000	1.629641
8.907000	1.581327
8.908000	1.516263
8.909000	1.457320
8.910000	1.489208
8.911000	1.558780
8.912000	1.603551
8.913000	1.681176
8.914000	1.775550
8.915000	1.853497
8.916000	1.924357
8.917000	1.958821
8.918000	1.904065
8.919000	1.808081
8.920000	1.665715
8.921000	1.577784
8.922000	1.553304
8.923000	1.544286
8.924000	1.520129
8.925000	1.542997
8.926000	1.575529
8.927000	1.590989
8.928000	1.576173
8.929000	1.559102
8.930000	1.569409
8.931000	1.567799
8.932000	1.581971
8.933000	1.622233
8.934000	1.653798
8.935000	1.651543
8.936000	1.639304
8.937000	1.617079
8.938000	1.566188
8.939000	1.510788
8.940000	1.451522
8.941000	1.442182
8.942000	1.442504
8.943000	1.388714
8.944000	1.373254
8.945000	1.390647
8.946000	1.394190
8.947000	1.332670
8.948000	1.293374
8.949000	1.307224
8.950000	1.356183
8.951000	1.417703
8.952000	1.530114
8.953000	1.691483
8.954000	1.784568
8.955000	1.809370
8.956000	1.751070
8.957000	1.641880
8.958000	1.566832
8.959000	1.433807
8.960000	1.309157
8.961000	1.288221
8.962000	1.360370
8.963000	1.451522
8.964000	1.551050
8.965000	1.622233
8.966000	1.649933
8.967000	1.600330
8.968000	1.527859
8.969000	1.439927
8.970000	1.367456
8.971000	1.332348
8.972000	1.392901
8.973000	1.437028
8.974000	1.484054
8.975000	1.540421
8.976000	1.489208
8.977000	1.468593
8.978000	1.479223
8.979000	1.531402
8.980000	1.521417
8.981000	1.473747
8.982000	1.457964
8.983000	1.439283
8.984000	1.461830
8.985000	1.511110
8.986000	1.596143
8.987000	1.643169
8.988000	1.681176
8.989000	1.631573
8.990000	1.550083
8.991000	1.481477
8.992000	1.419635
8.993000	1.433163
8.994000	1.453455
8.995000	1.498870
8.996000	1.601296
8.997000	1.749782
8.998000	1.790044
8.999000	1.792299
9.000000	1.757834
9.001000	1.733355
9.002000	1.686329
9.003000	1.629963
9.004000	1.581327
9.005000	1.469238
9.006000	1.348774
9.007000	1.288543
9.008000	1.301749
9.009000	1.392257
9.010000	1.551050
9.011000	1.672157
9.012000	1.683431
9.013000	1.629963
9.014000	1.639626
9.015000	1.657341
9.016000	1.697603
9.017000	1.682142
9.018000	1.625776
9.019000	1.637693
9.020000	1.685041
9.021000	1.691483
9.022000	1.629963
9.023000	1.525604
9.024000	1.458286
9.025000	1.411583
9.026000	1.349096
9.027000	1.342977
9.028000	1.414160
9.029000	1.514331
9.030000	1.583581
9.031000	1.597109
9.032000	1.607738
9.033000	1.586480
9.034000	1.507889
9.035000	1.451522
9.036000	1.472781
9.037000	1.510466
9.038000	1.592600
9.039000	1.650577
9.040000	1.620944
9.041000	1.561357
9.042000	1.525282
9.043000	1.504668
9.044000	1.489530
9.045000	1.487919
9.046000	1.525282
9.047000	1.561357
9.048000	1.593244
9.049000	1.628030
9.050000	1.636083
9.051000	1.608705
9.052000	1.550728
9.053000	1.533657
9.054000	1.493395
9.055000	1.445403
9.056000	1.455388
9.057000	1.427043
9.058000	1.428976
9.059000	1.485665
9.060000	1.590023
9.061000	1.725303
9.062000	1.774583
9.063000	1.814845
9.064000	1.896657
9.065000	1.870890
9.066000	1.787467
9.067000	1.663139
9.068000	1.562323
9.069000	1.533657
9.070000	1.523672
9.071000	1.419957
9.072000	1.359726
9.073000	1.388070
9.074000	1.409972
9.075000	1.403530
9.076000	1.368744
9.077000	1.359403
9.078000	1.381950
9.079000	1.420924
9.080000	1.456998
9.081000	1.534301
9.082000	1.674412
9.083000	1.743662
9.084000	1.754936
9.085000	1.759767
9.086000	1.724014
9.087000	1.708876
9.088000	1.715640
9.089000	1.676667
9.090000	1.625776
9.091000	1.598075
9.092000	1.592278
9.093000	1.539776
9.094000	1.458286
9.095000	1.407396
9.096000	1.470526
9.097000	1.599686
9.098000	1.741085
9.099000	1.867669
9.100000	1.905354
9.101000	1.861871
9.102000	1.801639
9.103000	1.679243
9.104000	1.567154
9.105000	1.485020
9.106000	1.412549
9.107000	1.353284
9.108000	1.377441
9.109000	1.469882
9.110000	1.627708
9.111000	1.745595
9.112000	1.781025
9.113000	1.767175
9.114000	1.742052
9.115000	1.699535
9.116000	1.627064
9.117000	1.525604
9.118000	1.463440
9.119000	1.486309
9.120000	1.472781
9.121000	1.418025
9.122000	1.396766
9.123000	1.420601
9.124000	1.520773
9.125000	1.624487
9.126000	1.718861
9.127000	1.769752
9.128000	1.721760
9.129000	1.653476
9.130000	1.513687
9.131000	1.312700
9.132000	1.223802
9.133000	1.240551
9.134000	1.314310
9.135000	1.386459
9.136000	1.485342
9.137000	1.562323
9.138000	1.602263
9.139000	1.619012
9.140000	1.606450
9.141000	1.592922
9.142000	1.639304
9.143000	1.717895
9.144000	1.753969
9.145000	1.755258
9.146000	1.769430
9.147000	1.724981
9.148000	1.663139
9.149000	1.621266
9.150000	1.611603
9.151000	1.598075
9.152000	1.521739
9.153000	1.440571
9.154000	1.391935
9.155000	1.383238
9.156000	1.390647
9.157000	1.449590
9.158000	1.519484
9.159000	1.637371
9.160000	1.715640
9.161000	1.750104
9.162000	1.734644
9.163000	1.642847
9.164000	1.574240
9.165000	1.549439
9.166000	1.491462
9.167000	1.502091
9.168000	1.573274
9.169000	1.653798
9.170000	1.659596
9.171000	1.649933
9.172000	1.630285
9.173000	1.613214
9.174000	1.595499
9.175000	1.569731
9.176000	1.501125
9.177000	1.439283
9.178000	1.432197
9.179000	1.470526
9.180000	1.517230
9.181000	1.590667
9.182000	1.712419
9.183000	1.742696
9.184000	1.745595
9.185000	1.734966
9.186000	1.676022
9.187000	1.605162
9.188000	1.653798
9.189000	1.781347
9.190000	1.801317
9.191000	1.776838
9.192000	1.643169
9.193000	1.536878
9.194000	1.443470
9.195000	1.338145
9.196000	1.286932
9.197000	1.329127
9.198000	1.463762
9.199000	1.625454
9.200000	1.686974
9.201000	1.736254
9.202000	1.730134
9.203000	1.725625
9.204000	1.726913
9.205000	1.698247
9.206000	1.627386
9.207000	1.571986
9.208000	1.551372
9.209000	1.528825
9.210000	1.494683
9.211000	1.428654
9.212000	1.363269
9.213000	1.300460
9.214000	1.255367
9.215000	1.203832
9.216000	1.221869
9.217000	1.305614
9.218000	1.351351
9.219000	1.376474
9.220000	1.436384
9.221000	1.476002
9.222000	1.511110
9.223000	1.556203
9.224000	1.568121
9.225000	1.555559
9.226000	1.573918
9.227000	1.615147
9.228000	1.598075
9.229000	1.611281
9.230000	1.598720
9.231000	1.554271
9.232000	1.535267
9.233000	1.600652
9.234000	1.676667
9.235000	1.692127
9.236000	1.684719
9.237000	1.629641
9.238000	1.552660
9.239000	1.532690
9.240000	1.545896
9.241000	1.547507
9.242000	1.520773
9.243000	1.505312
9.244000	1.551050
9.245000	1.659918
9.246000	1.710164
9.247000	1.648966
9.248000	1.605806
9.249000	1.524316
9.250000	1.517874
9.251000	1.556847
9.252000	1.578106
9.253000	1.600330
9.254000	1.668936
9.255000	1.736254
9.256000	1.789078
9.257000	1.771040
9.258000	1.741085
9.259000	1.755258
9.260000	1.788755
9.261000	1.854141
9.262000	1.848021
9.263000	1.796808
9.264000	1.707266
9.265000	1.575851
9.266000	1.484698
9.267000	1.426721
9.268000	1.410616
9.269000	1.449268
9.270000	1.518518
9.271000	1.563611
9.272000	1.564256
9.273000	1.547829
9.274000	1.523027
9.275000	1.479223
9.276000	1.410616
9.277000	1.365201
9.278000	1.344265
9.279000	1.382916
9.280000	1.457964
9.281000	1.536878
9.282000	1.655086
9.283000	1.683108
9.284000	1.616435
9.285000	1.543319
9.286000	1.501125
9.287000	1.488885
9.288000	1.496294
9.289000	1.531402
9.290000	1.590023
9.291000	1.617723
9.292000	1.574885
9.293000	1.590989
9.294000	1.590023
9.295000	1.573918
9.296000	1.542031
9.297000	1.509822
9.298000	1.479223
9.299000	1.488885
9.300000	1.509499
9.301000	1.525926
9.302000	1.472137
9.303000	1.470848
9.304000	1.487275
9.305000	1.515941
9.306000	1.572308
9.307000	1.649289
9.308000	1.707588
9.309000	1.749138
9.310000	1.780703
9.311000	1.729168
9.312000	1.654120
9.313000	1.593888
9.314000	1.502091
9.315000	1.434129
9.316000	1.395478
9.317000	1.418025
9.318000	1.489530
9.319000	1.545896
9.320000	1.570053
9.321000	1.564256
9.322000	1.539776
9.323000	1.556847
9.324000	1.589057
9.325000	1.689550
9.326000	1.752681
9.327000	1.753647
9.328000	1.722404
9.329000	1.614180
9.330000	1.524638
9.331000	1.407073
9.332000	1.338145
9.333000	1.334280
9.334000	1.390325
9.335000	1.484054
9.336000	1.511110
9.337000	1.558780
9.338000	1.581649
9.339000	1.618367
9.340000	1.699857
9.341000	1.744306
9.342000	1.680854
9.343000	1.566832
9.344000	1.464406
9.345000	1.398055
9.346000	1.431231
9.347000	1.452167
9.348000	1.428332
9.349000	1.400954
9.350000	1.387104
9.351000	1.378085
9.352000	1.411261
9.353000	1.477612
9.354000	1.535911
9.355000	1.500481
9.356000	1.499515
9.357000	1.472137
9.358000	1.456354
9.359000	1.462796
9.360000	1.496294
9.361000	1.485342
9.362000	1.487597
9.363000	1.522061
9.364000	1.539776
9.365000	1.531402
9.366000	1.585836
9.367000	1.657663
9.368000	1.670547
9.369000	1.668614
9.370000	1.669580
9.371000	1.701468
9.372000	1.744951
9.373000	1.759767
9.374000	1.782958
9.375000	1.819677
9.376000	1.841579
9.377000	1.836426
9.378000	1.755902
9.379000	1.651543
9.380000	1.582937
9.381000	1.542997
9.382000	1.495972
9.383000	1.408684
9.384000	1.342010
9.385000	1.354250
9.386000	1.397089
9.387000	1.509499
9.388000	1.653154
9.389000	1.762988
9.390000	1.832560
9.391000	1.794875
9.392000	1.749460
9.393000	1.689550
9.394000	1.712741
9.395000	1.728846
9.396000	1.719505
9.397000	1.615469
9.398000	1.531402
9.399000	1.461185
9.400000	1.406429
9.401000	1.338145
9.402000	1.329771
9.403000	1.336857
9.404000	1.421568
9.405000	1.536555
9.406000	1.648000
9.407000	1.683753
9.408000	1.719827
9.409000	1.748494
9.410000	1.785535
9.411000	1.805504
9.412000	1.787467
9.413000	1.756224
9.414000	1.807759
9.415000	1.943361
9.416000	2.038057
9.417000	2.022596
9.418000	1.910829
9.419000	1.749460
9.420000	1.593888
9.421000	1.558458
9.422000	1.527215
9.423000	1.558136
9.424000	1.651543
9.425000	1.764920
9.426000	1.798740
9.427000	1.704367
9.428000	1.584870
9.429000	1.430908
9.430000	1.348130
9.431000	1.326228
9.432000	1.334602
9.433000	1.402886
9.434000	1.490174
9.435000	1.622555
9.436000	1.701468
9.437000	1.766209
9.438000	1.773617
9.439000	1.691483
9.440000	1.518196
9.441000	1.402886
9.442000	1.412871
9.443000	1.471170
9.444000	1.514331
9.445000	1.542353
9.446000	1.536555
9.447000	1.542675
9.448000	1.472781
9.449000	1.329449
9.450000	1.222835
9.451000	1.159383
9.452000	1.127496
9.453000	1.154229
9.454000	1.205764
9.455000	1.262775
9.456000	1.340722
9.457000	1.423178
9.458000	1.514653
9.459000	1.540421
9.460000	1.498226
9.461000	1.460541
9.462000	1.449590
9.463000	1.485020
9.464000	1.546862
9.465000	1.627064
9.466000	1.695348
9.467000	1.787145
9.468000	1.889893
9.469000	1.865092
9.470000	1.834493
9.471000	1.824186
9.472000	1.771040
9.473000	1.682464
9.474000	1.512720
9.475000	1.340078
9.476000	1.279524
9.477000	1.303681
9.478000	1.397089
9.479000	1.514653
9.480000	1.614502
9.481000	1.668614
9.482000	1.604517
9.483000	1.524960
9.484000	1.403530
9.485000	1.329449
9.486000	1.333314
9.487000	1.402886
9.488000	1.464084
9.489000	1.513365
9.490000	1.504668
9.491000	1.511432
9.492000	1.567154
9.493000	1.547507
9.494000	1.501447
9.495000	1.443470
9.496000	1.427365
9.497000	1.424789
9.498000	1.457320
9.499000	1.517552
9.500000	1.545574
9.501000	1.543319
9.502000	1.572308
9.503000	1.597109
9.504000	1.569409
9.505000	1.564578
9.506000	1.635761
9.507000	1.623521
9.508000	1.547829
9.509000	1.527215
9.510000	1.519484
9.511000	1.494683
9.512000	1.435096
9.513000	1.382272
9.514000	1.376474
9.515000	1.438639
9.516000	1.523350
9.517000	1.712419
9.518000	1.929189
9.519000	2.040634
9.520000	1.967518
9.521000	1.801317
9.522000	1.612570
9.523000	1.441860
9.524000	1.318175
9.525000	1.298850
9.526000	1.335246
9.527000	1.380018
9.528000	1.452489
9.529000	1.536233
9.530000	1.627064
9.531000	1.686329
9.532000	1.724014
9.533000	1.741730
9.534000	1.791010
9.535000	1.860261
9.536000	1.864126
9.537000	1.752681
9.538000	1.699857
9.539000	1.712419
9.540000	1.740441
9.541000	1.750748
9.542000	1.753003
9.543000	1.776516
9.544000	1.777482
9.545000	1.724981
9.546000	1.597753
9.547000	1.519807
9.548000	1.524638
9.549000	1.535911
9.550000	1.569409
9.551000	1.689550
9.552000	1.784246
9.553000	1.843834
9.554000	1.863481
9.555000	1.872178
9.556000	1.834815
9.557000	1.721438
9.558000	1.601296
9.559000	1.513687
9.560000	1.466339
9.561000	1.505956
9.562000	1.562323
9.563000	1.626098
9.564000	1.723692
9.565000	1.773617
9.566000	1.739475
9.567000	1.686007
9.568000	1.571342
9.569000	1.463440
9.570000	1.336857
9.571000	1.305936
9.572000	1.336213
9.573000	1.337501
9.574000	1.329771
9.575000	1.294018
9.576000	1.258588
9.577000	1.275981
9.578000	1.411261
9.579000	1.667970
9.580000	1.864770
9.581000	1.974604
9.582000	1.974926
9.583000	1.947870
9.584000	1.818388
9.585000	1.643813
9.586000	1.538166
9.587000	1.378729
9.588000	1.301749
9.589000	1.332348
9.590000	1.377763
9.591000	1.395156
9.592000	1.345553
9.593000	1.287899
9.594000	1.305292
9.595000	1.367134
9.596000	1.467305
9.597000	1.581004
9.598000	1.624809
9.599000	1.589379
9.600000	1.573596
9.601000	1.535911
9.602000	1.558780
9.603000	1.653798
9.604000	1.705011
9.605000	1.725947
9.606000	1.638337
9.607000	1.490496
9.608000	1.315599
9.609000	1.212851
9.610000	1.196424
9.611000	1.300138
9.612000	1.427365
9.613000	1.606128
9.614000	1.750426
9.615000	1.810658
9.616000	1.773295
9.617000	1.665715
9.618000	1.529469
9.619000	1.370677
9.620000	1.279846
9.621000	1.232498
9.622000	1.262131
9.623000	1.299494
9.624000	1.415448
9.625000	1.598720
9.626000	1.748494
9.627000	1.837714
9.628000	1.816456
9.629000	1.753969
9.630000	1.697281
9.631000	1.625131
9.632000	1.590023
9.633000	1.610959
9.634000	1.668614
9.635000	1.718539
9.636000	1.725303
9.637000	1.696636
9.638000	1.639304
9.639000	1.600652
9.640000	1.606128
9.641000	1.638337
9.642000	1.697603
9.643000	1.715318
9.644000	1.745273
9.645000	1.789722
9.646000	1.822253
9.647000	1.817744
9.648000	1.881519
9.649000	1.902455
9.650000	1.857362
9.651000	1.784890
9.652000	1.682142
9.653000	1.599042
9.654000	1.573596
9.655000	1.545252
9.656000	1.504346
9.657000	1.488885
9.658000	1.577139
9.659000	1.660884
9.660000	1.713385
9.661000	1.755902
9.662000	1.777482
9.663000	1.771684
9.664000	1.730456
9.665000	1.633828
9.666000	1.474069
9.667000	1.352317
9.668000	1.323973
9.669000	1.402242
9.670000	1.576495
9.671000	1.773617
9.672000	1.897623
9.673000	1.852208
9.674000	1.697603
9.675000	1.490174
9.676000	1.358759
9.677000	1.280490
9.678000	1.250536
9.679000	1.322685
9.680000	1.397089
9.681000	1.462796
9.682000	1.494361
9.683000	1.470526
9.684000	1.439605
9.685000	1.455066
9.686000	1.589379
9.687000	1.778126
9.688000	1.855751
9.689000	1.807115
9.690000	1.740763
9.691000	1.671835
9.692000	1.600330
9.693000	1.565866
9.694000	1.510144
9.695000	1.490496
9.696000	1.514331
9.697000	1.608383
9.698000	1.685041
9.699000	1.670547
9.700000	1.643491
9.701000	1.556847
9.702000	1.441860
9.703000	1.396122
9.704000	1.451845
9.705000	1.456032
9.706000	1.399021
9.707000	1.383561
9.708000	1.386137
9.709000	1.394190
9.710000	1.374864
9.711000	1.407396
9.712000	1.424467
9.713000	1.440571
9.714000	1.439927
9.715000	1.385493
9.716000	1.355216
9.717000	1.368100
9.718000	1.372609
9.719000	1.399987
9.720000	1.432841
9.721000	1.455710
9.722000	1.432519
9.723000	1.357471
9.724000	1.305292
9.725000	1.318497
9.726000	1.370033
9.727000	1.438317
9.728000	1.568765
9.729000	1.626420
9.730000	1.605162
9.731000	1.530436
9.732000	1.498548
9.733000	1.483410
9.734000	1.517552
9.735000	1.604839
9.736000	1.648644
9.737000	1.658307
9.738000	1.564900
9.739000	1.447013
9.740000	1.382594
9.741000	1.391613
9.742000	1.485665
9.743000	1.541387
9.744000	1.532690
9.745000	1.485020
9.746000	1.443470
9.747000	1.444436
9.748000	1.501447
9.749000	1.527215
9.750000	1.535267
9.751000	1.562967
9.752000	1.595177
9.753000	1.618367
9.754000	1.634794
9.755000	1.652187
9.756000	1.661206
9.757000	1.612248
9.758000	1.495005
9.759000	1.397411
9.760000	1.356505
9.761000	1.487275
9.762000	1.686974
9.763000	1.830950
9.764000	1.907286
9.765000	1.930155
9.766000	1.826441
9.767000	1.711131
9.768000	1.623521
9.769000	1.628352
9.770000	1.689228
9.771000	1.812590
9.772000	1.917593
9.773000	2.028072
9.774000	2.130820
9.775000	2.234213
9.776000	2.284137
9.777000	2.220685
9.778000	2.045143
9.779000	1.854141
9.780000	1.737220
9.781000	1.639304
9.782000	1.549117
9.783000	1.446691
9.784000	1.461830
9.785000	1.459897
9.786000	1.423822
9.787000	1.397411
9.788000	1.355860
9.789000	1.320430
9.790000	1.309801
9.791000	1.360692
9.792000	1.445403
9.793000	1.501125
9.794000	1.511110
9.795000	1.511754
9.796000	1.533334
9.797000	1.542353
9.798000	1.525604
9.799000	1.456676
9.800000	1.429298
9.801000	1.410294
9.802000	1.338789
9.803000	1.290475
9.804000	1.250536
9.805000	1.219292
9.806000	1.171622
9.807000	1.206409
9.808000	1.338789
9.809000	1.566832
9.810000	1.846733
9.811000	1.982979
9.812000	1.954956
9.813000	1.865736
9.814000	1.752037
9.815000	1.671513
9.816000	1.641558
9.817000	1.679565
9.818000	1.742374
9.819000	1.797130
9.820000	1.799385
9.821000	1.751393
9.822000	1.726591
9.823000	1.712741
9.824000	1.671513
9.825000	1.564900
9.826000	1.477290
9.827000	1.463762
9.828000	1.489208
9.829000	1.461830
9.830000	1.435418
9.831000	1.459897
9.832000	1.542353
9.833000	1.555237
9.834000	1.508211
9.835000	1.472459
9.836000	1.496938
9.837000	1.487919
9.838000	1.471492
9.839000	1.443148
9.840000	1.406429
9.841000	1.405785
9.842000	1.434774
9.843000	1.460219
9.844000	1.536233
9.845000	1.544286
9.846000	1.513043
9.847000	1.463762
9.848000	1.437028
9.849000	1.411261
9.850000	1.417058
9.851000	1.399665
9.852000	1.406107
9.853000	1.430908
9.854000	1.471814
9.855000	1.501125
9.856000	1.496938
9.857000	1.493395
9.858000	1.536233
9.859000	1.530114
9.860000	1.445725
9.861000	1.403530
9.862000	1.453133
9.863000	1.613214
9.864000	1.726269
9.865000	1.827085
9.866000	1.905998
9.867000	1.890215
9.868000	1.704689
9.869000	1.526248
9.870000	1.396766
9.871000	1.286932
9.872000	1.315921
9.873000	1.397089
9.874000	1.450878
9.875000	1.512720
9.876000	1.556203
9.877000	1.606450
9.878000	1.627064
9.879000	1.608383
9.880000	1.571986
9.881000	1.570053
9.882000	1.687296
9.883000	1.823864
9.884000	1.847699
9.885000	1.857684
9.886000	1.888927
9.887000	1.890537
9.888000	1.902133
9.889000	1.947226
9.890000	1.982657
9.891000	1.911151
9.892000	1.786823
9.893000	1.664749
9.894000	1.516586
9.895000	1.345231
9.896000	1.264708
9.897000	1.316243
9.898000	1.388392
9.899000	1.396766
9.900000	1.409972
9.901000	1.395156
9.902000	1.366167
9.903000	1.332025
9.904000	1.348774
9.905000	1.406107
9.906000	1.476646
9.907000	1.597753
9.908000	1.675378
9.909000	1.716928
9.910000	1.733677
9.911000	1.701468
9.912000	1.686329
9.913000	1.681498
9.914000	1.634472
9.915000	1.568121
9.916000	1.625131
9.917000	1.648644
9.918000	1.629641
9.919000	1.568443
9.920000	1.499837
9.921000	1.432841
9.922000	1.409972
9.923000	1.446369
9.924000	1.518196
9.925000	1.619334
9.926000	1.666682
9.927000	1.730456
9.928000	1.850276
9.929000	1.924035
9.930000	1.963975
9.931000	1.984589
9.932000	1.929833
9.933000	1.814845
9.934000	1.737542
9.935000	1.674090
9.936000	1.641558
9.937000	1.608705
9.938000	1.573596
9.939000	1.591312
9.940000	1.680854
9.941000	1.721116
9.942000	1.775228
9.943000	1.897946
9.944000	1.865736
9.945000	1.800673
9.946000	1.615791
9.947000	1.411583
9.948000	1.297561
9.949000	1.305936
9.950000	1.326228
9.951000	1.361980
9.952000	1.445403
9.953000	1.468916
9.954000	1.473103
9.955000	1.386782
9.956000	1.342332
9.957000	1.342332
9.958000	1.363591
9.959000	1.392257
9.960000	1.409006
9.961000	1.475357
9.962000	1.612248
9.963000	1.749782
9.964000	1.818710
9.965000	1.731745
9.966000	1.696314
9.967000	1.654442
9.968000	1.665715
9.969000	1.695026
9.970000	1.708554
9.971000	1.703078
9.972000	1.632218
9.973000	1.538810
9.974000	1.462152
9.975000	1.425755
9.976000	1.507889
9.977000	1.639304
9.978000	1.670869
9.979000	1.586480
9.980000	1.514331
9.981000	1.478578
9.982000	1.452811
9.983000	1.441538
9.984000	1.547507
9.985000	1.648644
9.986000	1.682786
9.987000	1.680210
9.988000	1.662494
9.989000	1.597753
9.990000	1.554593
9.991000	1.661850
9.992000	1.768464
9.993000	1.826763
9.994000	1.832238
9.995000	1.799385
9.996000	1.674412
9.997000	1.542675
9.998000	1.347486
9.999000	1.166469

